##########
# Recording 28623 start
# Format: >Millis Micros AccelX AccelY AccelZ RotX RotY RotZ<
# All multiplied x100000
##########
28659 28659768 1245 195 98291 -13896 -63802 -771104
28662 28663504 1538 -244 97167 -13780 -64262 -771057
28666 28667252 463 -219 97045 -13709 -63371 -771012
28669 28670968 1000 292 98291 -13146 -63031 -771094
28674 28674712 1391 -585 96728 -13594 -63239 -771120
28678 28678456 1342 73 97412 -13217 -63284 -771126
28681 28682180 1708 -561 98657 -13591 -64020 -771150
28685 28685936 732 -244 96704 -13524 -63619 -771128
28693 28694248 1464 268 98120 -12938 -63626 -771095
28697 28697984 976 -73 97241 -12729 -63481 -771197
28701 28701716 1342 -463 97290 -12970 -63685 -771221
28704 28705452 610 -292 97192 -13025 -62999 -771150
28708 28709184 708 -488 97753 -13350 -62438 -771201
28711 28712904 1489 -439 97119 -13409 -62665 -771203
28716 28716640 610 24 97900 -13064 -61910 -771138
28720 28720348 854 488 98266 -12201 -61547 -771116
28723 28724064 1098 -24 97412 -11943 -61344 -771100
28727 28727812 1171 -415 97216 -12224 -61350 -771078
28732 28733428 390 -268 97045 -12355 -60352 -771043
28736 28737160 1513 -659 96728 -12846 -60907 -771167
28740 28740908 1196 48 97387 -12589 -60984 -771182
28743 28744636 878 -561 98071 -13019 -60787 -771325
28747 28748376 927 -390 97924 -13287 -60632 -771345
28751 28752108 1025 -73 97241 -13084 -60677 -771429
28754 28755840 1147 -73 97290 -12990 -60791 -771401
28759 28759596 1123 -97 97338 -13036 -61005 -771500
28763 28763344 1171 -390 97680 -13268 -61132 -771529
28767 28767836 390 -537 97436 -13775 -60637 -771638
28771 28771552 439 268 96533 -13279 -60053 -771626
28774 28775268 585 -708 97607 -13975 -59737 -771646
28778 28779004 1708 -195 97875 -13955 -60682 -771670
28782 28782760 1489 -146 97900 -13811 -60946 -771621
28785 28786496 708 -292 97656 -13835 -60545 -771654
28789 28790232 756 -24 97558 -13461 -60025 -771527
28793 28793944 463 -708 96899 -14028 -59194 -771515
28796 28797676 1147 268 97338 -13401 -58664 -771364
28801 28801416 878 -292 97143 -13388 -58335 -771352
28805 28805892 1367 -366 98168 -13690 -58751 -771268
28809 28809632 5004 244 100781 -13246 -62804 -771389
28813 28813412 927 512 96972 -12482 -62455 -771422
28816 28817140 2490 -488 98559 -12853 -64065 -771308
28820 28820880 -903 -1098 95239 -13975 -61651 -771346
28824 28824644 1538 24 97485 -13621 -62037 -771357
28827 28828372 6372 -976 104980 -13844 -67001 -771615
28831 28832120 2709 415 99829 -13139 -68847 -771648
28835 28835848 927 -561 97070 -13646 -68564 -771673
28838 28839588 1733 -366 97119 -13936 -68813 -771607
28844 28844084 1293 -830 97314 -14671 -68728 -771717
28847 28847836 1098 -292 97509 -14858 -68769 -771731
28851 28851588 1879 48 97387 -14516 -69565 -771750
28855 28855340 1708 195 98632 -14061 -70051 -771852
28858 28859080 585 -122 97070 -13857 -69347 -771848
28862 28862816 1098 -48 97290 -13758 -69388 -771959
28865 28866568 708 -366 97607 -14064 -68952 -772002
28869 28870284 1049 -73 97436 -13952 -68957 -772034
28873 28874032 903 -292 97265 -14116 -68785 -772004
28876 28877756 1416 -561 97778 -14682 -69361 -772079
28881 28882252 1220 268 98193 -14302 -69458 -772105
28884 28885984 830 -244 96752 -14537 -69320 -772144
28889 28889716 610 -781 98168 -15373 -68963 -772109
28893 28893452 1000 -488 97412 -15701 -69025 -772060
28896 28897192 976 -122 97363 -15728 -69098 -772086
28900 28900936 781 -48 96923 -15745 -68915 -772143
28904 28904672 1098 537 97143 -14912 -68966 -772195
28907 28908412 1196 -24 97900 -14779 -69148 -772154
28911 28912160 1098 -341 97900 -15067 -69149 -772164
28915 28915908 1416 -390 97778 -15012 -69277 -772115
28919 28920392 1074 -1098 97851 -15414 -68431 -772179
28923 28924156 878 219 96411 -14633 -67524 -772098
28926 28927880 -390 -561 94409 -14878 -65085 -772298
28931 28931608 3417 -1025 99682 -15601 -66894 -772313
28935 28935368 463 -488 97070 -15905 -65767 -772475
28938 28939080 610 -756 96997 -16342 -64460 -772459
28942 28942812 1733 -634 98046 -16653 -64887 -772451
28946 28946560 1879 -561 97021 -16983 -65544 -772452
28949 28950312 537 -366 96411 -16820 -64727 -772332
28961 28962728 830 -659 96508 -16815 -63286 -772374
28965 28966456 732 -488 97119 -16994 -62579 -772419
28969 28970176 708 -122 97827 -16772 -61953 -772402
28973 28973912 1586 268 97802 -16109 -62411 -772459
28977 28977660 756 146 97436 -15659 -61895 -772346
28981 28981380 756 73 97143 -15137 -61487 -772260
28984 28985096 634 0 97192 -14834 -60849 -772256
28988 28988668 1074 -537 97167 -15093 -60746 -772248
28991 28992416 683 -439 96801 -15430 -60077 -772079
28995 28996136 927 -170 97167 -15460 -60035 -772008
29003 29004504 805 0 97582 -15149 -60497 -772122
29007 29008092 805 0 97802 -14903 -60374 -772041
29010 29011664 1147 -756 97778 -15528 -60824 -771913
29015 29015416 878 341 97949 -14938 -60820 -771947
29019 29019144 537 -634 97509 -15430 -60467 -772017
29022 29022868 659 122 97021 -15101 -60209 -772110
29026 29026600 585 -610 97827 -15572 -59897 -772102
29029 29030320 512 -146 97729 -15413 -59438 -772141
29033 29034052 1733 24 96728 -15045 -60469 -772039
29037 29037792 1147 -24 97192 -14822 -60702 -772036
29043 29044000 1025 -537 97436 -15066 -60881 -772048
29046 29047736 1074 48 98168 -14832 -60941 -771909
29050 29051484 1098 -268 96655 -14901 -61060 -771826
29054 29055244 1464 -390 97607 -15096 -61504 -771858
29058 29058976 903 -219 96923 -15035 -61353 -771762
29062 29062716 976 -341 96874 -15174 -61334 -771727
29066 29066444 1489 -292 97973 -15131 -61876 -771761
29069 29070180 1269 -48 97851 -14831 -62208 -771708
29073 29073936 805 -97 97680 -14660 -61968 -771673
29077 29077684 1367 -1098 97021 -15623 -62312 -771674
29081 29082200 903 -488 96557 -16008 -62167 -771806
29085 29085928 1049 -244 97656 -16001 -62218 -771762
29088 29089672 1757 -146 97949 -15839 -62993 -771782
29092 29093432 1000 -24 97680 -15580 -62949 -771863
29096 29097176 805 -659 97705 -15981 -62568 -771823
29100 29100912 878 -73 97607 -15734 -62456 -771849
29104 29104652 561 439 97241 -14870 -61904 -771827
29108 29108372 1245 244 97485 -14325 -62156 -771916
29111 29112112 903 -1293 98364 -15509 -61905 -772021
29115 29115864 512 -170 97216 -15345 -61145 -771963
29119 29120328 976 -366 97607 -15372 -61128 -772002
29123 29124064 634 -1098 97119 -16378 -60721 -771976
29127 29127828 976 219 97753 -15783 -60588 -771991
29130 29131564 610 0 97070 -15556 -60150 -772011
29134 29135136 268 -415 97582 -15727 -59275 -771976
29137 29138864 1489 195 97094 -15217 -59829 -771947
29142 29142612 756 -122 97631 -15137 -59557 -771934
29146 29146352 1025 -195 97338 -15113 -59595 -771926
29149 29150104 1586 24 97290 -14811 -60254 -771891
29153 29153844 952 512 98071 -13896 -60113 -771716
29157 29158316 1074 -439 97900 -14132 -60137 -771724
29161 29162068 1098 97 96801 -13607 -60241 -771665
29165 29165812 634 -976 97851 -14491 -59752 -771671
29168 29169548 415 -146 97290 -14331 -59009 -771587
29172 29173284 1074 24 98193 -14003 -59076 -771766
29176 29177020 1416 -219 97851 -13971 -59615 -771749
29179 29180776 708 -97 97949 -13822 -59244 -771696
29184 29184512 756 -317 98071 -14023 -58991 -771558
29188 29188236 1074 -146 97119 -13938 -59007 -771651
29191 29191996 1220 512 98022 -13136 -59313 -771628
29196 29196484 1293 170 97753 -12780 -59565 -771697
29199 29200224 1196 -341 96728 -12910 -59826 -771754
29203 29203976 1318 -585 97021 -13312 -60208 -771742
29207 29207728 659 -24 97094 -13186 -59688 -771816
29210 29211448 927 -732 97875 -13892 -59520 -771806
29214 29215184 1049 -585 97119 -14283 -59514 -771784
29218 29218936 1147 170 97290 -13813 -59706 -771772
29221 29222684 1123 463 97070 -12988 -59735 -771853
29225 29226436 1269 -170 96752 -13073 -60043 -771794
29230 29230940 1245 -415 97143 -13324 -60346 -771729
29234 29234700 1000 -292 97314 -13371 -60318 -771822
29238 29238452 1025 366 97582 -12686 -60346 -771722
29241 29242188 1318 -122 97656 -12467 -60644 -771773
29245 29245940 1220 -219 98535 -12526 -60832 -771701
29249 29249704 1293 -341 97558 -12708 -61090 -771666
29252 29253444 1416 -1123 97167 -13681 -61466 -771589
29256 29257212 610 -341 96850 -13798 -60936 -771540
29260 29260940 1098 -122 98046 -13717 -60987 -771651
29263 29264696 634 -659 96997 -14263 -60409 -771579
29276 29276452 1562 -317 97167 -14241 -60880 -771457
29279 29280196 1293 -415 96679 -14483 -61297 -771495
29283 29283940 1147 219 96533 -13806 -61319 -771638
29287 29287676 122 -73 97192 -13696 -60142 -771648
29290 29291392 1171 -195 97680 -13698 -60355 -771699
29294 29295148 708 -439 97241 -13865 -59969 -771677
29298 29298872 390 146 98461 -13489 -59201 -771743
29301 29302596 585 -317 97705 -13626 -58835 -771690
29305 29306320 1049 -585 96630 -14003 -58934 -771728
29309 29310068 1123 24 97338 -13801 -59089 -771736
29318 29318544 903 -366 97436 -13846 -58622 -771935
29322 29322264 1196 146 97680 -13374 -58749 -771904
29325 29326020 1293 -732 98193 -14091 -59017 -771900
29329 29329768 976 -48 97119 -13875 -59029 -771942
29333 29333516 1245 -366 97485 -13956 -59276 -771916
29336 29337248 952 -244 98315 -14068 -59289 -771900
29340 29341000 1440 -732 97949 -14656 -59846 -771933
29343 29344732 1074 -244 97558 -14618 -59848 -771962
29347 29348484 708 24 97949 -14385 -59533 -772123
29351 29352192 1464 -463 97705 -14578 -60064 -772055
29358 29358584 1074 219 96411 -14013 -60065 -772176
29362 29362332 1342 -390 96874 -14226 -60411 -772058
29365 29366072 659 -512 97460 -14477 -59959 -772115
29369 29369800 1074 146 97314 -14077 -60083 -772135
29373 29373544 1245 -48 97314 -13857 -60329 -772068
29376 29377304 1074 561 97924 -12982 -60427 -772008
29380 29381052 1098 97 97387 -12710 -60497 -772092
29384 29384800 634 -732 97582 -13283 -60072 -772144
29387 29388532 1293 -244 97338 -13430 -60364 -772115
29391 29392284 1171 -244 97338 -13416 -60630 -772167
29395 29396784 390 -903 96752 -14239 -59939 -772116
29400 29400516 976 -463 97485 -14548 -60031 -772127
29404 29404244 732 -488 97582 -14749 -59574 -772187
29407 29407968 1342 -146 98144 -14642 -59877 -772092
29411 29411720 634 -830 98486 -15368 -59431 -772020
29415 29415460 756 146 97753 -14951 -59210 -772049
29418 29419188 1562 -244 97094 -14915 -59899 -771983
29422 29422940 1098 -292 98291 -14935 -59919 -771944
29425 29426696 952 -463 96923 -15238 -59868 -771858
29430 29431188 1318 24 96923 -14850 -60223 -771817
29434 29434924 244 488 98291 -13992 -59294 -771855
29437 29438636 1269 244 97900 -13328 -59571 -771941
29442 29442380 1586 -122 96704 -13129 -60219 -771915
29445 29446128 732 -512 97265 -13519 -59805 -771871
29449 29449860 1342 -292 96972 -13606 -60225 -771940
29453 29453608 341 97 96557 -13217 -59426 -771863
29456 29457328 1098 -415 97802 -13514 -59582 -771874
29460 29461076 1171 -561 97094 -13846 -59659 -771992
29464 29464824 659 -903 97753 -14690 -59283 -771957
29468 29469308 805 -146 96582 -14554 -58985 -772096
29472 29473052 1000 -585 98071 -14906 -58939 -772130
29475 29476796 1025 -24 96704 -14642 -59028 -772138
29479 29480540 1196 146 97778 -14199 -59189 -772041
29484 29484284 683 -219 97705 -14172 -58793 -772051
29487 29488020 903 -537 97778 -14535 -58640 -772114
29491 29491752 1123 -244 97558 -14548 -58702 -772110
29495 29495508 1513 -415 98120 -14709 -59331 -772056
29498 29499244 1220 -317 97802 -14834 -59622 -772046
29502 29503004 390 -48 97436 -14486 -58870 -772078
29506 29507476 1000 -585 97973 -14809 -58755 -772013
29510 29511224 952 -24 98046 -14719 -58650 -772070
29514 29514960 610 24 97631 -14490 -58211 -772035
29517 29518672 830 -244 98388 -14519 -58001 -771957
29521 29522416 561 -585 97607 -14992 -57504 -771959
29526 29526148 756 -390 97534 -15294 -57195 -772003
29529 29529876 170 -292 97143 -15351 -56133 -772029
29533 29533612 634 244 97216 -14701 -55655 -771985
29537 29537328 854 -439 97582 -14891 -55625 -771899
29540 29541068 683 -488 98193 -15114 -55370 -771718
29545 29545540 1342 48 97265 -14676 -55820 -771824
29548 29549284 683 -317 97924 -14771 -55598 -771838
29552 29553016 830 -463 97241 -15003 -55451 -771894
29556 29556752 1684 122 97216 -14527 -56372 -771932
29559 29560504 781 -48 97558 -14353 -56155 -771891
29563 29564244 1123 -122 97851 -14199 -56333 -771911
29566 29567996 854 -73 97582 -13976 -56186 -771840
29571 29571740 512 -24 98071 -13670 -55726 -771835
29575 29575456 1098 -97 97729 -13538 -55958 -771837
29578 29579212 1635 -366 96948 -13784 -56727 -771765
29590 29590816 756 -48 97460 -13596 -56530 -771485
29593 29594540 1245 -415 97558 -13811 -56765 -771590
29597 29598288 952 73 97338 -13453 -56702 -771635
29601 29602024 1123 -195 96704 -13446 -56849 -771632
29604 29605768 903 -244 97802 -13492 -56704 -771530
29608 29609504 1904 -366 96752 -13583 -57807 -771587
29613 29613240 1147 -97 97900 -13443 -57993 -771528
29616 29616988 1245 -610 97534 -13860 -58200 -771341
29620 29620744 537 170 97607 -13463 -57648 -771288
29624 29624460 1049 -244 98315 -13455 -57727 -771481
29632 29633048 732 -48 96874 -13107 -57438 -771788
29636 29636788 1074 48 97387 -12872 -57593 -771729
29639 29640528 1391 -73 97558 -12621 -57890 -771853
29643 29644260 732 -488 97167 -12940 -57541 -771832
29647 29647988 1098 -415 96362 -13111 -57719 -771742
29650 29651740 781 73 97582 -12896 -57466 -771790
29655 29655484 610 -170 98095 -12945 -57088 -771782
29659 29659216 927 -122 97143 -12824 -57058 -771742
29662 29662968 1660 -244 97485 -12878 -57879 -771604
29666 29666724 927 -244 96582 -12945 -57764 -771568
29671 29672124 341 -634 96728 -13467 -57162 -771647
29675 29675848 439 -170 97558 -13398 -56476 -771644
29678 29679572 366 -341 98095 -13501 -55738 -771668
29682 29683284 1245 -268 97875 -13545 -56021 -771572
29686 29687040 1098 195 97045 -13011 -56175 -771528
29689 29690788 878 48 96899 -12764 -56096 -771493
29693 29694524 1269 -317 97778 -12932 -56372 -771564
29698 29698268 708 146 97729 -12465 -56042 -771488
29701 29701984 878 -341 97582 -12670 -55947 -771447
29706 29706472 878 -610 97509 -13055 -55855 -771443
29709 29710208 1513 -244 97900 -12947 -56544 -771365
29713 29713948 1171 -732 98486 -13615 -56808 -771362
29717 29717696 1684 -390 97119 -13799 -57681 -771350
29720 29721448 976 -708 97729 -14346 -57612 -771333
29724 29725196 610 268 98168 -13727 -57123 -771335
29728 29728916 1684 -561 97436 -14125 -58005 -771299
29731 29732668 585 -805 97705 -14841 -57430 -771307
29735 29736400 708 -122 97949 -14802 -57145 -771304
29740 29740152 1049 122 96777 -14339 -57263 -771319
29744 29744660 1611 -390 97534 -14498 -57980 -771382
29748 29748416 708 463 97802 -13623 -57681 -771278
29751 29752132 1318 -585 97973 -14047 -58045 -771189
29755 29755888 1196 0 98242 -13752 -58261 -771135
29758 29759476 781 -170 97900 -13739 -58153 -771022
29762 29763220 1635 -439 97607 -14021 -58844 -770975
29766 29766968 512 -366 97412 -14117 -58288 -770789
29769 29770676 830 170 97387 -13567 -58068 -770772
29773 29774408 1464 -146 97436 -13592 -58629 -770756
29777 29778164 1171 -390 97900 -13727 -58877 -770684
29782 29782648 732 -48 97680 -13491 -58674 -770421
29786 29786380 830 -585 96948 -13944 -58509 -770482
29789 29790112 1000 -146 97949 -13830 -58395 -770563
29793 29793876 683 -146 97705 -13742 -58058 -770590
29797 29797620 732 610 97582 -12691 -57766 -770605
29800 29801332 756 -170 97436 -12733 -57650 -770594
29804 29805064 976 244 97900 -12134 -57653 -770619
29808 29808796 927 -708 98120 -12766 -57641 -770657
29811 29812536 756 73 97265 -12514 -57367 -770726
29815 29816252 292 -292 96435 -12624 -56617 -770722
29819 29820724 976 0 96582 -12353 -56756 -770810
29824 29824312 317 24 97241 -12010 -55947 -770659
29827 29828016 781 -1123 97827 -13183 -55724 -770601
29831 29831780 805 -366 97778 -13420 -55589 -770603
29835 29835512 683 -122 97387 -13276 -55250 -770531
29838 29839244 1074 -390 97192 -13434 -55369 -770441
29842 29843000 1977 -195 97290 -13395 -56578 -770419
29846 29846756 512 -48 98510 -13178 -56092 -770461
29849 29850476 1098 -146 97290 -13104 -56216 -770359
29853 29854240 781 439 97290 -12337 -56092 -770374
29857 29858712 854 -366 96118 -12562 -55922 -770291
29861 29862444 1025 -561 97802 -12890 -55951 -770225
29865 29866188 830 -610 97582 -13432 -55794 -770252
29869 29869928 1123 -292 98583 -13634 -56091 -770309
29873 29873684 952 -439 97143 -13870 -56078 -770292
29877 29877432 268 -170 96923 -13749 -55233 -770366
29880 29881160 732 -268 97216 -13885 -54961 -770313
29884 29884892 292 -292 96679 -14044 -54187 -770250
29888 29888616 805 -219 97021 -14040 -54005 -770316
29891 29892360 732 -415 98217 -14314 -53856 -770281
29904 29904904 1269 -537 97582 -14709 -53945 -770268
29907 29908644 390 -97 97558 -14626 -53347 -770248
29912 29912376 1611 -561 98242 -14889 -54150 -770194
29915 29916120 390 -781 97216 -15475 -53549 -770132
29919 29919856 830 -390 96508 -15670 -53338 -770152
29923 29923584 805 195 98095 -15182 -53212 -770126
29926 29927316 1342 -97 98364 -15051 -53831 -770134
29930 29931060 1220 -585 97656 -15430 -54120 -770142
29934 29934812 610 0 98071 -15076 -53732 -770125
29937 29938384 1049 292 96826 -14547 -53864 -770053
29946 29947064 439 -170 97875 -14562 -53228 -769972
29949 29950800 708 170 97412 -14098 -53033 -769966
29954 29954524 1342 97 97827 -13683 -53572 -769940
29958 29958264 1293 -122 97827 -13610 -54020 -770010
29961 29962024 708 97 97216 -13186 -53803 -770091
29965 29965748 878 -488 97582 -13634 -53763 -770120
29969 29969480 1245 -805 98754 -14322 -54236 -770222
29972 29973236 781 -195 98046 -14251 -54105 -770365
29976 29976984 781 -122 97582 -14167 -53900 -770371
29981 29982596 1489 -610 97192 -14669 -54719 -770587
29985 29986340 878 366 97582 -13918 -54696 -770606
29989 29990064 1123 -610 97802 -14403 -54891 -770667
29992 29993816 878 -537 98120 -14689 -55013 -770692
29997 29997552 903 -24 97778 -14410 -54922 -770744
30001 30001288 1635 195 97460 -13918 -55858 -770791
30004 30005036 1220 -659 97485 -14407 -56277 -770689
30008 30008788 756 -415 97167 -14608 -56021 -770723
30012 30012528 683 -122 96508 -14473 -55721 -770793
30015 30016268 73 537 97460 -13444 -54806 -770813
30020 30020740 976 -463 96874 -13836 -54732 -770906
30023 30024472 1293 -512 98217 -14187 -55231 -770829
30027 30028220 659 48 97509 -13786 -54932 -770798
30031 30031948 732 -48 97973 -13634 -54761 -770836
30034 30035680 976 -317 98022 -13679 -54769 -770816
30039 30039416 708 0 97485 -13329 -54510 -770813
30042 30042984 1196 0 98217 -13145 -54845 -770882
30046 30046584 756 -219 97314 -13185 -54621 -770814
30050 30050320 1000 -390 98315 -13344 -54659 -770774
30053 30054080 1000 170 97045 -12904 -54813 -770703
30058 30058572 1049 -537 97973 -13172 -54794 -770681
30061 30062324 1391 -317 96752 -13337 -55304 -770725
30065 30066060 1416 -48 96508 -13186 -55892 -770731
30069 30069804 1098 -366 96923 -13345 -56050 -770710
30072 30073552 1416 -634 97290 -13789 -56686 -770626
30076 30077296 1562 -292 97558 -13893 -57360 -770563
30081 30081044 1098 -292 97387 -14022 -57514 -770556
30084 30084792 1416 -659 97851 -14530 -58177 -770521
30088 30088540 683 -512 97998 -14861 -57817 -770609
30091 30092260 1025 -317 98022 -14952 -57747 -770606
30096 30096756 1074 -317 98022 -15118 -57883 -770547
30100 30100500 659 -415 97753 -15225 -57457 -770507
30103 30104232 927 -317 97582 -15364 -57337 -770533
30107 30107968 878 -170 97167 -15249 -57240 -770489
30110 30111704 415 -195 97460 -15209 -56596 -770431
30114 30115440 1806 -512 98022 -15551 -57569 -770274
30118 30119188 634 -781 98193 -16187 -57234 -770307
30121 30122916 610 -219 97558 -16060 -56858 -770249
30126 30126652 1611 122 97192 -15588 -57728 -770195
30130 30130404 1049 -366 97656 -15777 -57836 -770188
30134 30134884 1147 -292 97460 -15790 -58073 -770167
30138 30138644 585 -585 97582 -16175 -57612 -770333
30141 30142368 1342 -732 97827 -16720 -58050 -770384
30145 30146116 1098 -415 97045 -16851 -58156 -770502
30149 30149864 732 -73 98291 -16612 -57797 -770599
30152 30153580 1513 -683 97778 -16990 -58486 -770650
30156 30157328 268 -585 97582 -17441 -57636 -770688
30160 30161052 1171 -146 98022 -17312 -57808 -770671
30163 30164808 781 -463 97851 -17560 -57513 -770635
30169 30169264 830 -341 97363 -17711 -57423 -770680
30172 30173004 805 -463 97705 -17888 -57141 -770633
30176 30176740 1391 -317 97387 -17890 -57640 -770685
30180 30180488 830 -219 97607 -17776 -57412 -770686
30183 30184232 1171 122 96728 -17263 -57555 -770755
30187 30187980 1269 268 97582 -16583 -57836 -770793
30191 30191716 1293 -390 97509 -16723 -58204 -770776
30194 30195468 1147 -73 97949 -16516 -58334 -770839
30198 30199224 1074 -244 96411 -16520 -58444 -770767
30202 30202976 854 -170 96264 -16347 -58247 -770686
30215 30215404 683 97 97851 -15572 -57803 -770752
30218 30219116 1098 -390 97875 -15711 -58022 -770668
30222 30222876 854 -732 97094 -16229 -57838 -770711
30226 30226608 537 -195 97436 -16138 -57313 -770712
30229 30230340 1342 292 97192 -15379 -57869 -770732
30233 30234076 1147 -146 97607 -15261 -58094 -770761
30237 30237828 390 -366 97290 -15391 -57391 -770767
30240 30241552 1025 -341 97973 -15523 -57430 -770738
30244 30245304 1708 -146 97143 -15313 -58270 -770726
30248 30249060 1440 -732 96948 -15907 -58914 -770655
30257 30257836 708 170 98095 -15441 -58468 -770535
30261 30261568 976 -244 98071 -15457 -58475 -770619
30264 30265304 512 -244 97607 -15398 -57844 -770648
30268 30269024 1000 -170 97167 -15195 -57759 -770680
30272 30272776 1098 -488 98217 -15563 -57903 -770659
30275 30276520 1220 -48 98071 -15278 -58105 -770453
30279 30280272 1586 -146 96997 -15079 -58859 -770400
30283 30284028 634 -463 97631 -15442 -58440 -770269
30286 30287748 1074 -512 97729 -15709 -58470 -770283
30290 30291496 1269 -366 98339 -15853 -58703 -770284
30297 30297708 1464 -48 98144 -15609 -59149 -770259
30301 30301452 683 -512 97680 -15911 -58799 -770247
30304 30305180 708 634 97949 -14730 -58510 -770279
30308 30308908 1293 -219 97924 -14715 -58914 -770342
30312 30312660 1000 48 97802 -14381 -58943 -770362
30315 30316408 537 -366 98193 -14669 -58355 -770193
30319 30320120 1098 0 97802 -14321 -58430 -770245
30322 30323708 1098 -488 97680 -14719 -58514 -770370
30326 30327456 732 -122 97582 -14603 -58227 -770427
30330 30331204 1293 -24 98461 -14321 -58586 -770515
30334 30335692 952 -585 98120 -14672 -58570 -770449
30339 30339436 830 195 96972 -14188 -58370 -770487
30342 30343164 756 -390 97656 -14362 -58054 -770488
30346 30346900 830 -341 98022 -14365 -57755 -770508
30350 30350632 1489 -24 97192 -14209 -58427 -770505
30353 30354360 781 -537 98022 -14546 -58249 -770470
30357 30358096 732 -683 98071 -15065 -57987 -770411
30361 30361828 756 -488 97387 -15360 -57772 -770339
30364 30365552 976 -170 97582 -15121 -57768 -770378
30368 30369300 1635 170 98046 -14618 -58542 -770310
30372 30373796 927 -366 96923 -14757 -58533 -770233
30376 30377528 1074 -317 96337 -14696 -58677 -770189
30381 30381284 1171 -927 97607 -15504 -58847 -770191
30384 30385036 659 -708 97143 -16004 -58453 -770205
30388 30388772 732 -195 96704 -15873 -58205 -770103
30392 30392504 708 -952 96313 -16719 -57811 -770178
30395 30396240 1367 -219 97338 -16606 -58126 -770131
30399 30399984 1196 -317 98120 -16658 -58428 -770214
30403 30403740 1074 -97 97216 -16416 -58552 -770243
30407 30408244 732 -512 97338 -16698 -58280 -770345
30411 30411968 1318 -146 97827 -16517 -58676 -770332
30414 30415728 781 -268 96874 -16503 -58396 -770499
30418 30419480 1025 -659 97705 -16986 -58412 -770583
30423 30423232 805 -585 97534 -17387 -58181 -770557
30426 30426968 1025 -170 97167 -17198 -58202 -770516
30430 30430720 830 -439 97290 -17358 -58051 -770504
30434 30434460 927 -903 97216 -18025 -57988 -770491
30437 30438200 927 -146 97729 -17871 -57993 -770438
30441 30441936 1245 -415 97656 -17942 -58235 -770412
30445 30446424 1147 24 97387 -17488 -58420 -770451
30449 30450160 1147 -195 97949 -17393 -58567 -770434
30453 30453920 1098 -830 97973 -18055 -58622 -770385
30456 30457676 708 -366 97460 -18153 -58162 -770191
30460 30461392 732 -48 97338 -17883 -57811 -770298
30465 30465112 927 48 97436 -17431 -57750 -770304
30468 30468856 1367 -48 97021 -17169 -58107 -770336
30472 30472600 1147 0 97094 -16803 -58357 -770278
30475 30476188 1025 -830 97338 -17395 -58408 -770378
30479 30479944 805 -390 97875 -17545 -58165 -770331
30483 30484424 1245 317 97631 -16875 -58576 -770369
30487 30488160 561 -463 97436 -16950 -58124 -770456
30491 30491884 976 415 97973 -16134 -58063 -770435
30494 30495616 1196 0 97778 -15858 -58339 -770534
30498 30499216 1220 -195 97460 -15694 -58531 -770444
30502 30502964 683 -73 98852 -15495 -58112 -770510
30505 30506688 927 -463 97290 -15678 -58004 -770520
30510 30510424 1391 -537 97680 -16012 -58445 -770503
30513 30514160 1391 195 97192 -15429 -58898 -770454
30517 30517912 732 -195 98071 -15240 -58599 -770462
30529 30529680 439 341 97778 -14713 -57776 -770668
30532 30533384 927 219 97338 -14112 -57742 -770615
30536 30537108 708 -268 97582 -14157 -57333 -770575
30540 30540840 927 -146 97534 -14140 -57294 -770513
30543 30544584 1196 -512 97338 -14549 -57711 -770502
30547 30548324 1391 48 97656 -14182 -58189 -770394
30551 30552068 927 -244 96508 -14255 -58104 -770327
30555 30555808 1000 -537 97558 -14468 -58129 -770225
30559 30559556 1562 -268 97509 -14529 -58793 -770144
30562 30563296 1074 -48 97119 -14336 -58813 -770145
30571 30572192 708 97 97509 -13986 -58373 -770479
30575 30575920 561 -561 97436 -14411 -57852 -770467
30578 30579644 1147 -366 96948 -14620 -57955 -770518
30582 30583380 585 -561 97656 -15046 -57447 -770642
30586 30587112 878 -854 96997 -15794 -57367 -770597
30589 30590852 1000 -537 97314 -16005 -57345 -770615
30594 30594604 805 -878 99023 -16659 -57178 -770641
30598 30598352 1293 -146 97753 -16523 -57569 -770684
30601 30602100 1123 -512 98046 -16851 -57801 -770612
30605 30605848 1123 -830 97216 -17514 -57982 -770691
30611 30612264 1367 -634 97827 -17897 -58611 -770685
30615 30616016 927 -48 97949 -17559 -58497 -770705
30619 30619752 683 0 98535 -17185 -58180 -770656
30622 30623332 537 -195 97680 -17117 -57694 -770572
30626 30627060 610 -805 97949 -17712 -57285 -770564
30629 30630800 1293 -317 97705 -17801 -57584 -770585
30633 30634548 415 268 98413 -17079 -56952 -770419
30638 30638268 561 195 96704 -16509 -56496 -770324
30641 30641992 1220 -122 96948 -16317 -56856 -770418
30646 30646504 634 -463 98266 -16686 -56477 -770420
30649 30650228 1000 -341 96972 -16731 -56500 -770397
30653 30653976 1196 -268 98681 -16779 -56790 -770472
30657 30657724 512 -146 97753 -16601 -56273 -770496
30660 30661456 927 122 97290 -16178 -56323 -770467
30664 30665192 854 -268 97729 -16187 -56225 -770414
30668 30668928 439 -756 98168 -16723 -55707 -770438
30671 30672656 561 390 97631 -15911 -55198 -770428
30675 30676380 1049 -732 97460 -16453 -55256 -770429
30680 30680144 463 -195 97900 -16392 -54738 -770527
30684 30684624 1196 -952 97753 -17168 -54997 -770504
30688 30688384 463 195 96923 -16642 -54517 -770497
30691 30692100 439 -390 97338 -16810 -53848 -770541
30695 30695820 1245 -73 97290 -16604 -54264 -770469
30699 30699560 1147 219 97973 -16028 -54453 -770457
30702 30703312 1098 -463 97070 -16314 -54756 -770508
30706 30707056 927 -439 97949 -16537 -54727 -770413
30710 30710792 878 -415 97021 -16794 -54693 -770419
30713 30714528 1049 -146 97216 -16576 -54728 -770274
30717 30718280 805 24 97119 -16197 -54590 -770301
30722 30722756 1025 -756 97314 -16793 -54741 -770382
30726 30726508 1000 -170 97753 -16616 -54810 -770452
30730 30730256 1049 -48 97314 -16372 -54990 -770426
30733 30734008 1391 -195 97705 -16297 -55455 -770379
30737 30737760 1098 -24 98193 -16016 -55538 -770371
30740 30741500 781 -805 97241 -16658 -55325 -770304
30744 30745252 1000 -366 97485 -16754 -55299 -770275
30748 30748996 1245 -219 98120 -16621 -55651 -770331
30751 30752736 708 -488 97753 -16852 -55404 -770278
30755 30756460 1513 -341 98144 -16943 -55984 -770237
30759 30760940 1098 -415 98095 -17065 -56080 -770232
30764 30764700 1123 146 97485 -16694 -56344 -770301
30768 30768448 976 -561 97680 -16978 -56353 -770320
30771 30772180 1196 -170 96752 -16880 -56588 -770308
30775 30775932 781 -415 97167 -17139 -56360 -770310
30779 30779672 610 -610 97119 -17524 -55970 -770316
30782 30783412 952 -585 97290 -17875 -56073 -770269
30786 30787160 1123 -170 97338 -17718 -56255 -770252
30790 30790920 1269 -268 97949 -17636 -56696 -770240
30793 30794664 1000 -292 97729 -17710 -56669 -770272
30798 30799164 1342 195 97607 -17060 -57135 -770396
30801 30802900 1025 -585 97167 -17467 -57201 -770320
30806 30806648 537 -24 97290 -17183 -56689 -770238
30810 30810364 1049 170 97998 -16602 -56778 -770272
30813 30814104 512 -415 97558 -16853 -56208 -770268
30817 30817828 927 -122 97656 -16664 -56160 -770318
30821 30821576 1049 -244 97534 -16540 -56319 -770329
30824 30825312 659 -390 98095 -16593 -55897 -770227
30828 30829044 830 -122 97582 -16413 -55802 -770274
30839 30840660 1000 -561 97973 -16788 -55954 -770632
30843 30844404 830 -244 97656 -16747 -55818 -770670
30848 30848144 927 -537 98242 -17085 -55896 -770696
30851 30851876 1464 -195 97509 -16984 -56451 -770820
30855 30855624 927 -24 97509 -16713 -56399 -770830
30859 30859348 683 -268 97607 -16707 -56064 -770832
30862 30863084 1171 -292 97412 -16788 -56356 -770864
30866 30866832 1049 -146 97363 -16704 -56491 -770934
30870 30870580 1123 -48 97753 -16395 -56619 -770949
30873 30874328 854 -366 97729 -16544 -56404 -770872
30882 30883288 561 -878 97875 -17324 -55873 -770741
30886 30887028 1245 -366 98168 -17346 -56168 -770674
30889 30890768 1586 -366 96899 -17453 -56928 -770753
30894 30894516 756 244 97436 -16803 -56598 -770836
30898 30898236 805 -146 97509 -16719 -56493 -770897
30901 30901984 903 341 96874 -15931 -56389 -770765
30905 30905708 1684 268 96752 -15280 -57328 -770771
30909 30909456 927 -488 97900 -15546 -57209 -770800
30912 30913192 756 219 98095 -15109 -56942 -770686
30916 30916912 683 -390 98144 -15208 -56619 -770696
30921 30922296 659 -341 97534 -15438 -56511 -770781
30925 30926016 634 -341 97949 -15547 -56137 -770828
30928 30929744 683 -415 98315 -15772 -55720 -770836
30932 30933468 830 -341 97070 -15788 -55513 -770893
30937 30937196 488 -195 97460 -15714 -55053 -770945
30940 30940928 903 -146 97119 -15482 -54952 -771002
30944 30944672 976 -244 97558 -15409 -54972 -771044
30948 30948408 1171 -708 96728 -16042 -55207 -771119
30951 30952156 1025 -341 96777 -16179 -55322 -771060
30955 30955900 903 -561 96972 -16518 -55350 -770997
30959 30960384 1025 -24 97631 -16179 -55410 -770877
30963 30964128 659 -146 98242 -16030 -55120 -770842
30967 30967872 1123 24 97387 -15743 -55320 -770820
30970 30971616 1220 -561 97021 -16073 -55625 -770773
30974 30975368 878 366 97558 -15338 -55670 -770677
30979 30979092 1000 -48 97802 -15083 -55715 -770628
30982 30982848 1074 -24 97436 -14833 -55906 -770618
30986 30986592 756 -366 97485 -14971 -55654 -770615
30989 30990316 1416 268 97778 -14351 -56160 -770561
30993 30994056 781 170 97363 -13880 -55824 -770679
30998 30998536 1196 -390 97851 -14023 -56066 -770834
31001 31002280 903 -292 97778 -14079 -56086 -770909
31005 31006020 756 -561 97094 -14410 -55848 -770910
31008 31009744 1489 -195 97290 -14436 -56557 -770893
31012 31013496 634 -610 96606 -14942 -56160 -770791
31016 31017232 1074 -73 97387 -14830 -56252 -770909
31020 31020964 781 610 97460 -13815 -56111 -770838
31024 31024704 1245 -439 97265 -14116 -56437 -771059
31028 31028456 659 -537 97680 -14391 -56032 -770992
31031 31032168 1171 -512 97119 -14677 -56126 -771000
31036 31036668 952 -244 97485 -14747 -56104 -770928
31039 31040404 1464 -366 97875 -14802 -56756 -770912
31043 31044132 610 -415 98291 -15007 -56381 -770955
31047 31047864 1074 -488 97705 -15306 -56473 -770896
31050 31051604 854 -122 97363 -15029 -56325 -770813
31054 31055348 878 -488 97680 -15386 -56211 -770782
31058 31059076 683 0 98461 -15122 -55850 -770720
31062 31062652 1293 -195 97485 -15190 -56336 -770630
31066 31066412 976 -366 97192 -15335 -56427 -770577
31070 31070884 1147 -463 97119 -15567 -56600 -770549
31074 31074636 1025 -97 97875 -15347 -56726 -770541
31077 31078380 1513 -146 97680 -15251 -57380 -770657
31081 31082128 854 -317 97021 -15290 -57205 -770622
31085 31085864 1416 219 97192 -14770 -57609 -770642
31088 31089592 781 -170 98095 -14625 -57363 -770753
31092 31093336 390 -195 98291 -14446 -56611 -770853
31096 31097064 585 -512 97338 -14773 -56132 -770827
31099 31100784 1049 -415 97973 -14998 -56248 -770829
31104 31104540 830 -390 98217 -15153 -55990 -770928
31108 31109024 781 610 98608 -14121 -55801 -771064
31112 31112760 634 219 97485 -13681 -55389 -771091
31116 31116484 1269 146 97241 -13230 -55857 -771083
31119 31120232 1464 195 97778 -12795 -56426 -771170
31123 31123976 1171 -585 97412 -13147 -56658 -771149
31127 31127724 610 -122 96997 -13073 -56317 -771209
31130 31131460 585 -634 97216 -13481 -55929 -771236
31134 31135192 1293 -708 97363 -13954 -56323 -771251
31138 31138940 927 -708 97119 -14514 -56341 -771229
31141 31142680 366 0 98364 -14228 -55664 -771213
31154 31155084 1220 122 97802 -13564 -56018 -771021
31158 31158828 1123 97 99121 -13155 -56255 -770931
31162 31162568 781 97 97265 -12799 -55991 -771015
31165 31166288 1147 -537 97973 -13158 -56285 -771065
31169 31170036 1342 -756 97412 -13758 -56770 -771062
31173 31173788 1098 73 98168 -13396 -56921 -771105
31176 31177536 1342 -512 97949 -13691 -57352 -771088
31180 31181284 1074 -48 98071 -13532 -57469 -771117
31184 31185036 390 -610 97534 -14000 -56760 -771091
31187 31188764 1049 -732 96704 -14512 -56876 -771185
31197 31197852 634 24 98071 -14204 -56573 -771011
31201 31201580 1245 -24 97656 -13975 -56880 -771062
31204 31205316 610 -24 96362 -13772 -56461 -771028
31208 31209040 1171 -512 97729 -13953 -56682 -770944
31212 31212784 1025 24 96923 -13617 -56733 -770932
31215 31216516 2050 463 96704 -12752 -58189 -771062
31219 31220248 1074 -708 97729 -13295 -58410 -770994
31223 31223992 878 -561 97094 -13638 -58265 -771010
31226 31227728 830 -463 97387 -13987 -58058 -771017
31230 31231464 1147 -781 98046 -14673 -58237 -770891
31236 31237088 1171 195 97485 -14082 -58457 -770886
31240 31240832 976 195 97582 -13540 -58314 -770802
31244 31244572 1464 -366 97314 -13713 -58854 -770717
31247 31248296 1489 -170 97314 -13615 -59472 -770828
31251 31252044 927 -366 96997 -13834 -59258 -770733
31255 31255768 732 122 97290 -13404 -58926 -770716
31258 31259496 1025 48 97436 -13161 -58845 -770693
31262 31263248 708 -219 98388 -13203 -58524 -770708
31266 31266980 561 -24 97412 -12940 -58009 -770705
31269 31270700 561 -219 97705 -12938 -57441 -770731
31275 31275192 1049 244 97680 -12421 -57471 -770680
31278 31278928 1245 -317 97338 -12599 -57769 -770694
31282 31282680 1293 0 97216 -12270 -58134 -770737
31285 31286268 1196 415 97045 -11516 -58374 -770784
31289 31290016 634 292 97119 -11059 -57793 -770731
31293 31293740 1098 -219 97631 -11077 -58016 -770764
31296 31297492 903 146 97167 -10749 -57903 -770761
31300 31301228 634 -561 97729 -11180 -57453 -770659
31304 31304968 195 -561 96948 -11691 -56574 -770674
31307 31308696 1049 -1000 96972 -12645 -56731 -770524
31312 31313220 878 -708 96899 -13186 -56503 -770696
31315 31316948 976 -1098 96826 -14281 -56552 -770772
31320 31320712 976 -97 97314 -14056 -56576 -770761
31324 31324452 1318 -366 97363 -14219 -56911 -770790
31327 31328184 878 -610 97265 -14700 -56825 -770737
31331 31331928 561 -488 97265 -14980 -56326 -770574
31335 31335652 1025 292 98071 -14342 -56366 -770516
31338 31339388 1025 -341 97607 -14623 -56424 -770585
31342 31343136 1464 -878 98364 -15372 -57028 -770559
31346 31347632 781 -488 97631 -15648 -56846 -770585
31350 31351372 415 -537 96850 -16066 -56229 -770636
31354 31355100 952 -268 96850 -16030 -56240 -770683
31357 31358844 1049 -756 97192 -16570 -56337 -770876
31362 31362596 1293 -561 97436 -16782 -56736 -770960
31366 31366340 512 0 98193 -16414 -56212 -770975
31369 31369908 805 -366 97705 -16455 -56080 -771087
31373 31373636 1147 -341 97705 -16485 -56371 -771061
31376 31377372 610 -48 96240 -16213 -55997 -771025
31380 31381124 1367 -488 97143 -16541 -56489 -771094
31385 31385616 781 -756 97582 -17164 -56318 -771060
31388 31389360 854 -146 98095 -16985 -56112 -771086
31392 31393116 1098 -268 97827 -16910 -56213 -771073
31395 31396856 634 -97 97241 -16717 -55832 -771098
31399 31400596 976 146 96850 -16134 -55818 -771154
31404 31404332 1000 -610 97363 -16569 -55879 -771196
31407 31408088 1025 -830 97143 -17153 -56020 -771152
31411 31411840 952 195 98486 -16528 -56019 -771111
31415 31415576 781 -219 97290 -16478 -55755 -771071
31418 31419308 1538 -97 98291 -16219 -56361 -771085
31423 31423812 854 -708 97680 -16742 -56193 -770898
31426 31427540 1367 0 98315 -16474 -56609 -771018
31430 31431124 1269 -341 97778 -16585 -56915 -770983
31434 31434864 1269 24 98681 -16242 -57250 -770920
31437 31438600 756 -195 98510 -16137 -56913 -770861
31441 31442336 1538 -244 97119 -16111 -57611 -770826
31446 31446092 756 170 97705 -15575 -57328 -770883
31449 31449824 1318 268 97875 -15026 -57748 -770982
31453 31453560 927 -195 97656 -14905 -57673 -770938
31457 31457296 1489 -415 97582 -15143 -58236 -770971
31469 31469732 927 0 97851 -15034 -57941 -770720
31472 31473300 976 -73 96093 -14790 -57934 -770667
31476 31477036 244 -634 96801 -15209 -57046 -770632
31479 31480756 952 -97 97534 -14995 -57011 -770622
31483 31484500 1367 317 97119 -14403 -57483 -770563
31488 31488240 805 122 97705 -13887 -57308 -770509
31491 31491972 1269 -1074 97021 -14853 -57601 -770578
31495 31495748 781 -292 97070 -14985 -57329 -770495
31499 31499488 1147 244 97582 -14438 -57507 -770606
31502 31503224 903 -390 97607 -14559 -57428 -770590
31511 31512376 659 -415 97192 -14930 -56935 -770621
31515 31516116 537 -73 98266 -14662 -56480 -770623
31519 31519836 537 -659 96972 -15241 -55917 -770587
31522 31523572 1074 -1025 97436 -16123 -56122 -770449
31526 31527340 1074 -268 97949 -16114 -56242 -770578
31531 31531092 927 -170 98852 -15947 -56192 -770623
31534 31534840 1074 -1074 97705 -16851 -56381 -770631
31538 31538604 1171 97 97509 -16408 -56666 -770724
31542 31542348 1367 -244 96997 -16300 -57080 -770707
31545 31546092 1098 -146 97070 -16086 -57301 -770739
31551 31552316 903 -585 97705 -16414 -57267 -770724
31555 31556056 1269 195 97582 -15806 -57590 -770689
31559 31559804 1538 -463 98535 -16092 -58186 -770731
31562 31563540 439 122 97900 -15710 -57536 -770727
31566 31567276 781 -341 97094 -15816 -57378 -770719
31570 31571008 1220 -48 97412 -15557 -57644 -770739
31574 31574772 1049 -122 98291 -15379 -57684 -770802
31578 31578536 1342 -48 97094 -15115 -58097 -770767
31582 31582284 1269 -585 97265 -15453 -58479 -770713
31586 31586792 1123 0 97070 -15244 -58605 -770544
31589 31590380 952 -463 97363 -15476 -58468 -770578
31593 31594124 1367 -390 97607 -15672 -58915 -770543
31597 31597868 1318 -97 97900 -15396 -59154 -770645
31600 31601604 1440 -781 98852 -15930 -59676 -770578
31604 31605352 585 341 97265 -15219 -59250 -770513
31608 31609068 2001 -585 97656 -15624 -60377 -770487
31611 31612812 1049 -683 97680 -16172 -60478 -770409
31616 31616564 805 -73 97167 -15919 -60233 -770427
31620 31620312 1074 -366 98193 -16041 -60344 -770478
31624 31624800 805 -415 97729 -16205 -60246 -770595
31628 31628536 1147 -439 97949 -16439 -60410 -770514
31631 31632276 830 -463 96948 -16532 -60158 -770565
31635 31636008 1074 -634 97900 -17039 -60206 -770628
31639 31639760 830 -146 97607 -16937 -59881 -770693
31642 31643488 488 -463 96777 -17135 -59303 -770719
31646 31647216 878 219 98413 -16665 -59118 -770748
31650 31650944 781 -463 96728 -16881 -58923 -770731
31653 31654688 537 -48 97973 -16653 -58301 -770819
31657 31658416 1269 -488 97631 -16940 -58654 -770717
31662 31662908 341 -146 96752 -16786 -57831 -770664
31666 31666640 610 -244 97973 -16789 -57379 -770661
31670 31670372 878 512 97363 -15791 -57252 -770630
31673 31674104 756 -268 98510 -15708 -56957 -770546
31677 31677832 1098 292 97460 -15067 -57096 -770520
31681 31681580 1049 -341 96948 -15142 -57104 -770499
31684 31685324 1293 -756 96777 -15668 -57482 -770482
31688 31689080 756 -317 97924 -15802 -57267 -770580
31691 31692796 1269 -634 97558 -16244 -57612 -770641
31695 31696556 537 -488 97436 -16385 -57025 -770618
31700 31701024 683 -463 97827 -16405 -56550 -770674
31704 31704744 1220 -341 97241 -16532 -56881 -770798
31708 31708480 927 -415 97729 -16611 -56907 -770813
31711 31712204 976 -195 97607 -16588 -56856 -770823
31715 31715940 781 122 97363 -16052 -56590 -770880
31719 31719676 1000 -146 97241 -15894 -56584 -770790
31722 31723436 1000 -463 97143 -16176 -56602 -770706
31726 31727184 1733 -952 96899 -16960 -57543 -770696
31730 31730944 1513 122 96948 -16534 -58230 -770771
31733 31734676 1074 -415 96874 -16711 -58288 -770687
31738 31739180 756 -48 98364 -16343 -58075 -770604
31741 31742904 927 -341 97143 -16382 -57977 -770355
31746 31746632 1831 -390 97607 -16578 -58973 -770314
31750 31750380 1123 -415 97460 -16788 -59122 -770329
31753 31754120 756 -537 96997 -16996 -58857 -770252
31757 31757852 732 292 98071 -16281 -58473 -770157
31761 31761572 805 -219 97387 -16182 -58242 -770085
31764 31765312 878 -585 97045 -16693 -58018 -769977
31768 31769048 927 -219 97485 -16666 -58015 -770015
31779 31780808 1220 -170 97534 -16481 -58255 -770323
31783 31784548 1562 -366 98168 -16638 -58845 -770272
31788 31788284 1293 -952 96606 -17528 -59216 -770360
31791 31792032 1220 -537 97509 -17843 -59424 -770465
31795 31795772 1269 -268 97802 -17782 -59782 -770522
31799 31799516 756 366 97192 -17007 -59599 -770569
31802 31803224 1025 -292 97460 -16981 -59553 -770626
31806 31806972 683 -390 98022 -17124 -59187 -770673
31810 31810696 878 -659 97631 -17568 -58981 -770597
31813 31814428 1098 -463 98413 -17684 -59140 -770544
31822 31823712 97 -634 97924 -18165 -57989 -770438
31826 31827452 1123 -683 98486 -18619 -58194 -770234
31831 31831204 1245 -73 98364 -18335 -58444 -770304
31834 31834948 1123 -219 97509 -18142 -58588 -770269
31838 31838700 927 -659 96923 -18585 -58500 -770261
31842 31842440 708 390 97900 -17715 -58180 -770327
31845 31846156 805 317 97534 -16897 -57951 -770280
31849 31849892 561 -48 98120 -16763 -57456 -770249
31853 31853620 610 -415 97998 -16931 -56975 -770195
31856 31857348 1025 -317 97729 -16963 -57163 -770258
31862 31863752 1220 -732 97143 -17468 -57486 -770261
31866 31867500 1196 -634 97314 -17722 -57756 -770171
31870 31871248 1000 -317 97387 -17830 -57760 -770228
31874 31874992 1464 -537 97460 -18157 -58267 -770285
31878 31878728 1269 -561 98120 -18425 -58583 -770323
31882 31882480 1220 -390 96484 -18502 -58919 -770316
31885 31886216 1025 -1025 97338 -19308 -58947 -770427
31889 31889992 756 -366 96606 -19277 -58588 -770344
31893 31893712 1440 146 97241 -18700 -59100 -770359
31896 31897456 1391 -390 98144 -18937 -59578 -770361
31901 31901956 1342 -244 97241 -18917 -60081 -770350
31904 31905688 1342 -122 98413 -18632 -60425 -770334
31908 31909440 1538 -488 96997 -18847 -61122 -770171
31912 31913196 341 -830 97900 -19369 -60299 -770155
31916 31916920 1147 -146 98071 -19199 -60445 -770236
31920 31920680 1000 170 97387 -18661 -60366 -770219
31924 31924428 1074 -415 97460 -18753 -60363 -770088
31927 31928180 976 -146 97241 -18729 -60378 -770090
31931 31931928 732 244 97460 -18062 -60008 -770027
31935 31936364 1074 -561 97460 -18432 -60023 -769998
31939 31940124 976 -122 97631 -18217 -59914 -769890
31943 31943876 1489 -122 98095 -18062 -60464 -769851
31946 31947620 1635 97 97729 -17579 -61202 -769944
31950 31951376 1049 -219 97656 -17476 -61182 -769932
31954 31955132 854 -488 97705 -17671 -61010 -769906
31958 31958864 1171 24 97119 -17325 -61276 -770007
31962 31962592 561 -24 96752 -17038 -60747 -770068
31966 31966304 781 73 98388 -16491 -60392 -770129
31969 31970032 1684 -317 98535 -16439 -61118 -770253
31974 31974524 1855 -537 97900 -16720 -61893 -770194
31977 31978268 1440 -561 98022 -17065 -62363 -770208
31981 31982024 1123 -732 97363 -17580 -62392 -770163
31985 31985776 -146 -146 96435 -17465 -60965 -770215
31988 31989524 -244 -341 95947 -17630 -59567 -770162
31992 31993256 805 -415 96435 -17797 -59292 -770173
31996 31996988 878 -610 97802 -18129 -59185 -770183
32000 32000728 1464 -463 98291 -18246 -59813 -770124
32004 32004460 1049 -366 97949 -18326 -59867 -770066
32008 32008204 878 -439 97485 -18471 -59666 -770109
32012 32012688 976 73 96874 -18056 -59705 -770086
32016 32016412 1123 -659 96972 -18451 -59874 -770024
32019 32020172 683 -927 98266 -19300 -59527 -769989
32023 32023912 1074 -610 98217 -19598 -59508 -770004
32027 32027660 1000 -1367 96655 -20791 -59554 -769909
32030 32031432 1245 -659 97436 -21173 -59772 -769844
32034 32035184 170 -830 96752 -21718 -58743 -769813
32038 32038920 219 -73 97363 -21316 -57849 -769888
32041 32042648 1000 -24 97192 -20902 -57968 -769913
32046 32046392 1025 -561 98095 -21085 -57993 -770020
32050 32050884 1464 -439 97851 -21213 -58380 -770052
32054 32054620 1513 195 97363 -20549 -58917 -769985
32057 32058352 -146 -195 96899 -20359 -57525 -770114
32061 32062100 927 97 96972 -19692 -57596 -770092
32065 32065832 1147 -122 97607 -19428 -57858 -770139
32068 32069584 1928 24 98242 -18914 -58991 -770239
32072 32073316 878 -390 97875 -19171 -58828 -770326
32076 32077052 976 -585 97119 -19519 -58687 -770300
32079 32080780 1293 -366 96362 -19569 -59081 -770369
32083 32084520 903 488 96655 -18642 -59067 -770295
32101 32102012 1245 -170 98364 -18566 -58774 -770303
32105 32105752 1635 -244 96606 -18448 -59538 -770231
32108 32109492 463 0 97875 -18120 -58866 -770153
32112 32113064 878 170 97509 -17587 -58735 -770141
32116 32116796 1196 -439 97436 -17698 -59025 -770101
32119 32120544 1123 97 97875 -17228 -59135 -770066
32123 32124292 1391 -170 98364 -17163 -59532 -770182
32128 32128036 952 24 97070 -16754 -59435 -770270
32131 32131764 1342 -122 96557 -16527 -59773 -770247
32135 32135520 1342 390 98144 -15825 -60159 -770276
32144 32144880 1196 122 96728 -15434 -60204 -770426
32148 32148620 1489 -659 97460 -15895 -60661 -770459
32151 32152368 1611 -659 96899 -16451 -61280 -770474
32155 32156120 1171 -366 97656 -16551 -61398 -770484
32159 32159864 122 97 97167 -16099 -60291 -770499
32162 32163600 537 73 97827 -15733 -59666 -770544
32166 32167316 537 -659 97582 -16227 -59161 -770509
32171 32171052 878 -122 97802 -16128 -58978 -770596
32174 32174792 952 -317 97949 -16194 -58887 -770518
32179 32180216 976 -634 97436 -16720 -58813 -770376
32183 32183960 561 -170 96484 -16683 -58368 -770371
32187 32187684 756 -488 96948 -16913 -58180 -770327
32190 32191412 927 48 98266 -16534 -58134 -770250
32194 32195144 1342 -537 96533 -16942 -58744 -770172
32198 32198888 976 -268 97094 -16960 -58685 -770091
32201 32202624 390 -854 96923 -17612 -57967 -770172
32205 32206360 122 -439 97387 -17839 -56906 -770219
32209 32210092 561 -292 97265 -17755 -56487 -770171
32212 32213820 756 48 97070 -17490 -56220 -770104
32218 32218300 1367 -390 97973 -17626 -56593 -770063
32221 32222040 1245 73 97314 -17264 -56974 -770138
32225 32225772 1660 73 98242 -16864 -57788 -770154
32229 32229512 1074 -390 97607 -16935 -57866 -770242
32232 32233256 512 -24 96337 -16589 -57414 -770323
32236 32236972 634 -634 97094 -17095 -57010 -770242
32240 32240704 1196 -146 98168 -16955 -57279 -770276
32243 32244468 1171 -244 97582 -16872 -57641 -770143
32247 32248220 610 -585 97558 -17262 -57137 -770209
32251 32251948 585 -170 97192 -17086 -56649 -770215
32256 32256428 561 463 97753 -16252 -55949 -770270
32260 32260140 585 -463 97631 -16426 -55535 -770203
32263 32263876 952 -610 97827 -16847 -55557 -770180
32267 32267624 1269 -292 97705 -16839 -56020 -770250
32271 32271376 1025 -488 97119 -17047 -56015 -770192
32274 32275120 1342 -585 97167 -17461 -56477 -770060
32278 32278868 927 -390 98095 -17496 -56440 -770084
32281 32282588 708 -585 97290 -17840 -56100 -770076
32285 32286320 1098 -146 98657 -17742 -56337 -769975
32289 32290076 1074 -170 97753 -17573 -56447 -769990
32293 32294568 1123 -268 98291 -17407 -56686 -770000
32297 32298316 1049 -415 97900 -17525 -56739 -770044
32301 32302060 1586 -488 97607 -17783 -57453 -770027
32305 32305816 512 -268 98046 -17746 -56950 -770035
32309 32309540 1562 -219 97460 -17622 -57607 -769991
32312 32313292 1513 146 96997 -17179 -58404 -769883
32316 32317028 1489 170 98217 -16605 -58812 -769946
32320 32320760 219 -146 97363 -16499 -57956 -769915
32323 32324488 1367 -366 97851 -16645 -58320 -769911
32327 32328224 1147 -268 97436 -16622 -58556 -769908
32331 32332720 585 -708 97778 -17137 -58047 -769781
32335 32336456 927 -366 97094 -17255 -57963 -769679
32339 32340176 1000 -48 97485 -17026 -57944 -769846
32343 32343924 1098 73 97558 -16599 -58069 -769836
32347 32347668 854 -512 97216 -16870 -57874 -769805
32351 32351408 1049 341 97607 -16234 -57899 -769738
32354 32355140 1684 -415 96874 -16387 -58799 -769837
32358 32358888 512 -24 97534 -16043 -58247 -769816
32362 32362608 1025 -830 97241 -16721 -58209 -769794
32365 32366368 1196 -97 97460 -16531 -58499 -769705
32370 32370872 1440 -463 97827 -16748 -58991 -769652
32373 32374612 1171 -24 96557 -16412 -59130 -769769
32377 32378352 512 -219 98315 -16316 -58625 -769734
32381 32382080 976 -195 98339 -16133 -58524 -769797
32385 32385820 537 -219 97094 -15991 -57993 -769658
32389 32389560 1342 -634 98388 -16418 -58379 -769701
32393 32393308 463 -390 97875 -16614 -57740 -769670
32396 32397032 927 -219 97045 -16498 -57650 -769739
32400 32400768 561 -97 96850 -16292 -57211 -769819
32412 32413344 805 -146 97582 -16046 -57011 -769842
32416 32417092 1269 -634 97998 -16484 -57373 -769812
32419 32420840 830 -561 98071 -16801 -57118 -769722
32423 32424576 1293 -341 97778 -16931 -57664 -769869
32428 32428312 1245 0 97070 -16610 -57989 -769866
32431 32431896 1049 73 98315 -16209 -58136 -769855
32435 32435644 927 -73 97070 -15948 -58036 -769866
32439 32439384 1708 -73 97338 -15693 -58968 -769817
32442 32443136 1269 -244 98413 -15764 -59218 -769971
32446 32446888 1147 -366 97949 -15813 -59425 -769854
32455 32456356 805 -73 97290 -15635 -59251 -769748
32459 32460092 830 -390 97436 -15808 -59060 -769658
32462 32463820 1220 195 97827 -15213 -59241 -769604
32466 32467560 1025 -317 97973 -15421 -59217 -769561
32471 32471312 585 -219 98046 -15341 -58717 -769613
32474 32475040 1049 488 97167 -14440 -58757 -769517
32478 32478780 1171 -219 97509 -14426 -59012 -769500
32482 32482540 1416 -170 97412 -14347 -59501 -769479
32485 32486284 1220 -415 97900 -14593 -59799 -769371
32489 32490032 1171 -146 97582 -14442 -59901 -769403
32495 32495660 976 -146 97778 -14451 -59809 -769345
32498 32499404 878 -24 97534 -14231 -59585 -769377
32502 32503132 1025 -122 96997 -14090 -59587 -769429
32506 32506896 1269 -48 96923 -13879 -59967 -769375
32509 32510652 1245 -415 97460 -14080 -60171 -769469
32514 32514400 1513 -244 98071 -14110 -60740 -769448
32517 32518140 927 -390 97363 -14332 -60599 -769513
32521 32521876 439 -122 98437 -14150 -59856 -769466
32525 32525612 488 -146 97949 -13998 -59185 -769477
32528 32529332 878 -585 96923 -14403 -59124 -769448
32533 32533820 1562 -317 97314 -14488 -59720 -769377
32536 32537568 683 -830 98046 -15199 -59333 -769341
32540 32541320 488 -585 96728 -15528 -58683 -769282
32544 32545044 756 -708 97973 -16108 -58331 -769375
32547 32548764 537 -244 97021 -16007 -57762 -769328
32551 32552488 1123 -708 97851 -16508 -57907 -769170
32556 32556244 634 -146 97290 -16390 -57496 -769176
32559 32559980 1171 0 97167 -16037 -57721 -769111
32563 32563584 1367 -341 98095 -16187 -58127 -769149
32567 32567320 1586 122 97070 -15781 -58829 -769178
32571 32571820 1049 -415 97631 -16053 -58878 -769180
32575 32575568 659 -292 97509 -16125 -58438 -769181
32578 32579304 854 -317 98217 -16118 -58290 -769189
32582 32583040 1342 146 98120 -15588 -58692 -769200
32586 32586784 1049 0 97119 -15320 -58801 -769242
32589 32590372 1171 -585 97582 -15820 -59072 -769262
32593 32594124 1098 -585 97607 -16151 -59122 -769232
32596 32597872 1098 146 97680 -15714 -59340 -769074
32601 32601628 878 24 98437 -15398 -59256 -769038
32605 32606088 708 -390 98022 -15665 -58755 -769071
32609 32609812 1293 97 97265 -15272 -59126 -769145
32613 32613552 1611 122 97094 -14804 -59898 -769133
32616 32617308 1147 -244 98095 -14702 -59873 -769184
32620 32621060 1147 48 97460 -14417 -59997 -769126
32624 32624808 1098 -24 97021 -14166 -60251 -769132
32627 32628552 1220 -219 97485 -14164 -60475 -769188
32631 32632308 732 -268 97851 -14235 -60145 -769121
32635 32636040 1098 0 97314 -13945 -60177 -769187
32638 32639636 512 244 97949 -13379 -59714 -769082
32644 32644116 1367 -195 96826 -13527 -60161 -769176
32647 32647872 1171 -317 97680 -13616 -60320 -769177
32651 32651620 1220 -1025 96459 -14646 -60537 -769206
32655 32655388 756 -244 97460 -14658 -60292 -769263
32658 32659124 1196 -805 98242 -15321 -60492 -769289
32662 32662884 1464 24 97265 -15052 -60940 -769277
32665 32666604 439 -244 97265 -15106 -60190 -769287
32669 32670328 830 -634 97973 -15545 -59926 -769240
32673 32674076 659 -634 97094 -15996 -59546 -769241
32676 32677808 1440 195 96850 -15540 -59992 -769426
32681 32682296 1123 -561 97290 -15889 -59928 -769497
32685 32686048 854 -927 97021 -16639 -59783 -769508
32689 32689784 854 -268 97363 -16586 -59580 -769553
32693 32693524 1196 -634 97875 -17050 -59775 -769632
32696 32697268 1147 -146 97753 -16862 -59882 -769548
32700 32701024 1098 -439 97241 -17059 -59931 -769397
32704 32704776 1000 -488 96972 -17294 -59906 -769321
32707 32708528 1464 -561 97265 -17651 -60385 -769427
32711 32712264 1049 -195 97265 -17677 -60342 -769331
32715 32716016 -122 -903 97949 -18334 -59041 -769309
32728 32728448 1147 -48 95727 -18139 -59970 -769375
32732 32732196 2685 -122 100488 -17848 -61841 -769331
32735 32735956 2929 -24 101391 -17607 -63579 -769412
32739 32739688 1538 -610 97778 -17947 -63863 -769454
32743 32743444 -219 -244 95556 -17952 -62183 -769442
32746 32747164 -2221 -708 95849 -18540 -58474 -769340
32750 32750912 -756 -732 95751 -19036 -56583 -769396
32753 32754648 2343 48 97558 -18651 -58216 -769535
32757 32758384 4663 -537 98071 -18790 -62137 -769610
32761 32762108 2783 390 100048 -17930 -63865 -769552
32771 32771660 610 -634 95214 -18333 -64209 -769691
32775 32775392 1953 -195 95434 -18137 -65350 -769652
32778 32779132 2368 -73 97558 -17824 -66764 -769647
32782 32782872 1342 -341 99682 -17940 -66694 -769603
32786 32786612 195 -1660 97900 -19497 -65440 -769618
32789 32790364 -48 -1147 97924 -20443 -64038 -769583
32793 32794136 -170 -610 97070 -20722 -62685 -769562
32797 32797876 1171 -561 96948 -20993 -62923 -769563
32800 32801624 1074 -97 96240 -20676 -62991 -769467
32806 32807860 1464 -219 99707 -20702 -63441 -769397
32811 32811600 1147 439 99096 -19772 -63364 -769323
32815 32815344 2050 -73 97021 -19435 -64446 -769329
32818 32819072 659 488 96948 -18468 -64055 -769404
32822 32822792 -244 219 97485 -17938 -62608 -769373
32826 32826520 195 -488 97216 -18137 -61653 -769462
32829 32830248 1196 -1318 95898 -19396 -61890 -769561
32833 32834012 1513 -97 97924 -19144 -62257 -769627
32837 32837748 878 -146 98803 -18921 -62036 -769633
32840 32841504 -122 439 97705 -17955 -60585 -769720
32845 32845992 781 341 96411 -17272 -60499 -769758
32848 32849708 2172 -317 96069 -17340 -61838 -769760
32852 32853456 1416 170 96874 -16808 -62257 -769756
32857 32857200 1318 488 98828 -15950 -62487 -769790
32860 32860936 1245 219 98388 -15284 -62591 -769797
32864 32864676 878 -122 98583 -15039 -62374 -769817
32868 32868420 1025 -439 97558 -15258 -62366 -769750
32871 32872176 903 -537 96069 -15575 -62255 -769733
32875 32875916 268 -537 97363 -15966 -61425 -769771
32879 32879632 708 -268 98339 -15991 -61052 -769805
32883 32884112 1269 -122 99047 -15811 -61233 -769764
32887 32887884 2368 -1000 97314 -16726 -62733 -769820
32890 32891652 1879 -195 98022 -16589 -63640 -769822
32894 32895408 -146 0 97363 -16179 -62385 -769842
32898 32898980 317 122 97631 -15751 -61604 -769761
32902 32902704 1342 0 97045 -15418 -61957 -769717
32906 32906300 1831 -927 96899 -16161 -62824 -769691
32909 32910060 1171 -390 97045 -16357 -62933 -769894
32913 32913800 854 -854 98901 -17002 -62623 -769928
32917 32917544 585 -659 96704 -17550 -62096 -769874
32921 32922024 708 -708 98095 -17995 -61842 -769858
32925 32925756 1806 -1391 97753 -19229 -62843 -769992
32928 32929520 1782 -195 96899 -19069 -63669 -770036
32932 32933272 1660 -146 97900 -18916 -64271 -769992
32936 32937024 1147 -366 97460 -19093 -64149 -770006
32940 32940776 781 -170 97753 -18911 -63775 -770093
32944 32944516 1513 -585 97607 -19246 -64424 -770099
32948 32948260 1196 122 96826 -18703 -64511 -770091
32951 32952008 1171 170 97802 -18044 -64641 -770118
32956 32956500 683 341 97290 -17142 -64093 -770016
32959 32960220 1074 -561 96459 -17579 -63883 -769987
32963 32963972 292 -1000 96801 -18371 -62898 -769998
32967 32967720 1391 -878 98754 -19031 -63339 -770017
32970 32971476 1147 439 98510 -18157 -63478 -769983
32974 32975220 1220 -48 97021 -17900 -63749 -769934
32978 32978964 1269 -683 98291 -18468 -63913 -769894
32982 32982712 634 -244 97509 -18310 -63230 -769866
32986 32986436 1000 463 96704 -17438 -63021 -769895
32989 32990164 195 -415 97387 -17586 -62004 -769983
32994 32994648 683 195 97338 -16967 -61676 -769979
32997 32998368 1049 -268 97167 -16984 -61725 -769998
33001 33002128 1464 -390 97363 -17097 -62369 -770031
33005 33005876 1293 97 96997 -16590 -62663 -770028
33008 33009608 1342 170 97290 -15971 -62892 -770038
33012 33013340 439 -585 97607 -16362 -62030 -770040
33016 33017068 561 -366 98266 -16520 -61421 -770124
33019 33020776 1220 219 97778 -15997 -61611 -770089
33024 33024528 1879 -146 98461 -15786 -62536 -770036
33028 33028284 659 -659 97558 -16307 -62122 -770101
33039 33040044 1220 -219 97729 -16397 -62435 -769851
33043 33043792 1025 -219 97973 -16384 -62412 -769847
33046 33047536 1171 -537 98364 -16654 -62591 -769867
33050 33051296 634 -488 96630 -16905 -62205 -769869
33054 33055024 1098 -317 97900 -16906 -62192 -769751
33057 33058764 1611 268 97851 -16223 -62721 -769723
33061 33062500 952 -732 96533 -16832 -62471 -769663
33065 33066224 366 -854 97656 -17456 -61567 -769519
33069 33069948 903 -268 97192 -17350 -61472 -769386
33073 33073676 683 -927 97119 -18088 -61129 -769351
33082 33083336 1342 -390 97485 -18210 -61416 -769465
33086 33087080 463 -317 96972 -18286 -60682 -769400
33090 33090800 952 -219 97216 -18210 -60617 -769378
33093 33094532 805 -512 97460 -18447 -60375 -769441
33097 33098280 927 48 95874 -18073 -60288 -769535
33101 33102008 512 -439 97778 -18320 -59741 -769586
33104 33105724 1098 -219 98339 -18245 -59832 -769619
33108 33109484 1049 -317 96850 -18368 -59751 -769651
33113 33113232 1147 634 97534 -17290 -59939 -769680
33116 33116976 756 -292 97680 -17269 -59676 -769651
33123 33123376 830 -390 97851 -17281 -59498 -769654
33126 33127116 1123 -244 98168 -17231 -59637 -769693
33130 33130872 1098 -122 97582 -17128 -59720 -769625
33134 33134632 854 -415 96923 -17316 -59432 -769608
33137 33138364 952 585 98583 -16359 -59386 -769470
33141 33142096 537 -366 96704 -16555 -58892 -769490
33144 33145804 1025 -48 96704 -16263 -58925 -769473
33148 33149564 1660 -244 97729 -16365 -59796 -769437
33153 33153324 1416 585 98022 -15293 -60188 -769438
33157 33157800 1220 -219 97607 -15319 -60417 -769441
33161 33161556 756 268 97827 -14702 -59955 -769465
33164 33165268 341 -512 96728 -14992 -59237 -769434
33168 33168992 952 -463 97705 -15319 -59091 -769338
33172 33172724 1684 -585 97582 -15758 -59954 -769303
33175 33176472 1367 -781 98632 -16272 -60264 -769342
33179 33180220 1171 -170 97900 -16205 -60442 -769246
33183 33183972 878 0 97900 -15912 -60132 -769201
33186 33187536 781 -195 96923 -15853 -59918 -769325
33190 33191276 1293 -390 97680 -15989 -60300 -769222
33195 33195760 1196 -292 97265 -15916 -60585 -769216
33199 33199512 1123 -830 97363 -16525 -60654 -769213
33203 33203272 1538 -146 97949 -16428 -61293 -769297
33206 33207028 878 -390 99072 -16550 -61191 -769347
33210 33210760 854 -170 96923 -16313 -60901 -769239
33214 33214496 1171 -317 97705 -16349 -61120 -769272
33217 33218248 1416 219 97167 -15678 -61620 -769305
33221 33221984 1171 -390 97314 -15828 -61799 -769283
33225 33225736 1000 -122 97900 -15685 -61720 -769230
33228 33229492 952 -585 97924 -15996 -61677 -769317
33233 33233980 659 -415 97021 -16166 -61210 -769246
33236 33237724 97 24 97412 -15827 -60107 -769217
33241 33241440 463 -244 97070 -15830 -59434 -769146
33244 33245156 903 -292 97216 -15795 -59364 -769083
33248 33248892 952 -122 98681 -15584 -59216 -769189
33252 33252632 952 -292 98071 -15560 -59112 -769199
33255 33256364 683 -854 97460 -16282 -58715 -769219
33259 33260108 805 -317 96630 -16356 -58442 -769172
33263 33263848 170 -659 98388 -16832 -57490 -769096
33266 33267572 1293 244 97680 -16142 -57941 -769110
33271 33272064 1220 -366 98413 -16388 -58161 -769087
33274 33275800 1000 390 97265 -15677 -58039 -769120
33278 33279540 585 -195 97338 -15607 -57522 -769244
33283 33283272 1416 -24 96655 -15422 -58001 -769319
33286 33287000 1098 -488 97363 -15639 -58073 -769412
33290 33290748 1269 -48 97973 -15410 -58432 -769510
33294 33294500 1098 -781 97802 -15985 -58568 -769493
33297 33298268 732 -219 97998 -15927 -58217 -769568
33301 33302004 1293 -195 97656 -15837 -58539 -769537
33305 33305772 1391 219 97387 -15279 -58915 -769534
33309 33310260 732 -268 97753 -15369 -58640 -769430
33313 33313992 1367 122 97802 -14931 -59095 -769445
33316 33317736 1074 -122 97998 -14900 -59258 -769324
33320 33321496 1025 610 96606 -13907 -59199 -769229
33325 33325244 1098 146 97558 -13470 -59341 -769258
33328 33329000 1464 -268 97582 -13550 -59724 -769143
33332 33332744 1049 -24 97363 -13303 -59801 -769090
33336 33336488 512 -366 97241 -13495 -59213 -769064
33339 33340200 1782 -244 96874 -13465 -60274 -769047
33351 33351824 878 -634 96997 -14173 -60319 -768784
33354 33355560 781 -244 97094 -14171 -60070 -768633
33358 33359316 976 -244 97680 -14088 -60013 -768657
33362 33363052 1171 -244 98144 -14144 -60212 -768682
33366 33366808 1025 610 97607 -13211 -60211 -768760
33370 33370564 1269 -585 97363 -13617 -60487 -768711
33374 33374320 805 -170 97900 -13598 -60233 -768713
33377 33378064 1513 -463 97192 -13788 -60705 -768684
33381 33381800 927 24 97802 -13515 -60676 -768750
33385 33385516 805 48 97729 -13204 -60389 -768806
33394 33395272 878 170 96948 -12915 -60099 -769009
33398 33398996 244 -415 96899 -13165 -59118 -768960
33401 33402708 708 195 97436 -12701 -58696 -768888
33405 33406432 1245 -561 97875 -13145 -58967 -768878
33410 33410192 708 -268 97534 -13269 -58610 -768774
33413 33413916 1123 97 97167 -12809 -58864 -768758
33417 33417664 24 48 97998 -12446 -57723 -768718
33421 33421380 1684 -708 98071 -12997 -58595 -768733
33424 33425136 1000 -488 97509 -13333 -58509 -768765
33428 33428888 976 -146 97021 -13275 -58541 -768767
33433 33434328 73 244 96997 -12847 -57666 -768746
33437 33438044 585 -73 97363 -12599 -57296 -768807
33440 33441760 1708 341 97851 -11964 -58141 -768809
33444 33445500 1757 -488 97167 -12180 -58937 -768762
33448 33449244 1293 0 96752 -11888 -59242 -768800
33452 33452828 463 -195 98168 -11823 -58497 -768716
33456 33456560 292 -585 97021 -12318 -57798 -768855
33460 33460288 1440 -830 95874 -13027 -58444 -768857
33463 33464044 1513 -366 97558 -13214 -58843 -768773
33467 33467776 854 -219 98486 -13137 -58646 -768733
33471 33472260 585 -561 98681 -13531 -58022 -768790
33475 33475988 1074 -830 96606 -14119 -58117 -768714
33479 33479756 756 -634 97143 -14612 -57843 -768674
33482 33483496 1025 -708 97021 -15196 -57890 -768773
33486 33487244 903 -48 97998 -14994 -57806 -768715
33490 33490984 1049 -732 98754 -15651 -57890 -768707
33494 33494732 1196 -537 97607 -16161 -58024 -768664
33498 33498476 732 -439 96508 -16373 -57661 -768633
33501 33502196 24 -805 97119 -16946 -56442 -768593
33505 33505928 659 -48 97143 -16627 -56126 -768424
33510 33510420 1269 -244 97143 -16582 -56464 -768524
33513 33514168 1660 -1049 97119 -17434 -57287 -768520
33517 33517936 1245 97 97094 -16924 -57601 -768471
33521 33521676 463 -366 98291 -16981 -56976 -768467
33524 33525384 561 122 97241 -16472 -56528 -768390
33528 33529116 219 -219 97265 -16374 -55723 -768364
33531 33532844 830 -683 97631 -16830 -55570 -768427
33536 33536584 585 97 97509 -16400 -55296 -768544
33540 33540300 781 -97 97021 -16200 -55054 -768513
33543 33544036 976 -537 97998 -16515 -55059 -768558
33548 33548528 1611 -97 96728 -16251 -55824 -768456
33551 33552268 1635 -48 97582 -16031 -56669 -768396
33555 33556028 878 -390 97192 -16259 -56524 -768441
33559 33559760 634 -97 96826 -16089 -56216 -768406
33562 33563496 756 -366 98266 -16158 -56033 -768444
33566 33567228 610 585 97119 -15138 -55632 -768363
33570 33570956 952 170 98168 -14635 -55626 -768282
33573 33574696 1171 -756 96826 -15327 -55810 -768241
33577 33578452 732 -317 97290 -15435 -55556 -768255
33582 33582180 634 -24 97875 -15181 -55215 -768307
33586 33586656 1049 -488 97558 -15540 -55319 -768187
33590 33590396 1171 -732 97412 -16130 -55671 -768243
33593 33594144 1293 -976 98046 -17121 -56075 -768318
33597 33597908 659 -146 98339 -16940 -55663 -768411
33601 33601648 1000 -268 97680 -16906 -55701 -768463
33604 33605404 732 -195 97363 -16905 -55449 -768386
33608 33609148 1196 -537 97656 -17147 -55707 -768382
33612 33612888 292 -317 97778 -17211 -54882 -768407
33615 33616616 781 -97 97485 -16938 -54702 -768549
33619 33620356 1293 244 98095 -16242 -55107 -768673
33624 33624844 683 0 98022 -15922 -54738 -768778
33628 33628416 830 24 96655 -15623 -54685 -768867
33631 33632128 1123 -390 97558 -15763 -55023 -768850
33635 33635880 903 -463 98046 -16078 -54978 -768871
33639 33639620 1293 -878 98339 -16735 -55399 -768840
33642 33643376 1855 195 97875 -16356 -56481 -768872
33646 33647128 805 -244 97680 -16310 -56246 -768837
33650 33650868 1269 48 97485 -15971 -56573 -768797
33653 33654616 463 463 97338 -15086 -55951 -768884
33667 33667172 1269 73 97265 -14443 -56345 -768930
33670 33670924 512 -439 97265 -14664 -55720 -768779
33674 33674652 830 0 97119 -14397 -55558 -768721
33677 33678224 1171 -927 97631 -15299 -55827 -768638
33681 33681984 927 -610 97119 -15706 -55775 -768652
33685 33685728 1806 24 96874 -15452 -56796 -768685
33688 33689452 903 -317 97656 -15443 -56869 -768712
33692 33693188 1171 170 97460 -14955 -57001 -768772
33696 33696928 805 -195 97192 -14970 -56887 -768673
33699 33700664 1074 -537 97607 -15354 -56962 -768669
33710 33710536 341 -488 98071 -15541 -56370 -768643
33714 33714252 1098 -268 97778 -15557 -56548 -768631
33717 33718016 1416 219 97387 -15154 -56987 -768645
33721 33721760 1025 -390 97387 -15323 -57066 -768651
33725 33725504 976 -195 97241 -15237 -57089 -768679
33728 33729264 634 -439 97119 -15420 -56689 -768761
33732 33732992 708 268 97485 -14863 -56365 -768565
33735 33736700 1513 24 97021 -14581 -57020 -768599
33739 33740432 1586 -317 98046 -14587 -57836 -768594
33743 33744176 1513 -537 97802 -14888 -58416 -768486
33748 33749764 1660 97 98413 -14475 -59211 -768532
33753 33753512 1049 -292 98046 -14612 -59343 -768446
33757 33757264 1391 -610 97167 -15097 -59886 -768512
33760 33761016 1269 -292 97045 -15188 -60151 -768556
33764 33764768 1123 -73 97534 -14934 -60299 -768604
33768 33768520 1049 -195 97949 -14971 -60217 -768696
33771 33772288 390 -366 97119 -15096 -59389 -768497
33775 33776008 659 -561 96655 -15536 -58978 -768622
33779 33779736 1025 -659 97778 -16064 -59072 -768577
33782 33783492 1611 -268 97607 -15961 -59757 -768695
33787 33787992 439 -48 97436 -15663 -59120 -768783
33790 33791732 781 390 98461 -14931 -58644 -768686
33795 33795456 585 -195 97851 -14869 -58193 -768728
33799 33799192 878 -195 97094 -14869 -58048 -768798
33802 33802928 1196 -122 96752 -14691 -58381 -768867
33806 33806688 805 -292 97802 -14726 -58162 -768832
33809 33810424 1098 24 97192 -14380 -58356 -768806
33813 33814168 1489 -268 98095 -14489 -58880 -768857
33817 33817908 854 -439 98071 -14626 -58723 -768968
33820 33821636 903 -488 98168 -14933 -58572 -768927
33825 33826116 585 -146 97558 -14751 -58130 -768905
33828 33829848 1000 122 97338 -14330 -58092 -768869
33832 33833604 610 -366 98144 -14507 -57679 -768811
33837 33837332 976 -561 98022 -14926 -57613 -768785
33840 33841060 1782 0 97070 -14579 -58409 -768707
33844 33844652 1147 -585 97753 -14947 -58572 -768754
33848 33848404 781 -122 97045 -14827 -58336 -768788
33851 33852156 927 -292 96826 -14990 -58236 -768790
33855 33855896 878 -756 97534 -15673 -58158 -768823
33859 33859632 1367 -537 97778 -15983 -58619 -768811
33863 33864132 1464 -463 97753 -16182 -59115 -768935
33867 33867868 976 195 97241 -15655 -59132 -768986
33870 33871608 1513 -415 97387 -15919 -59754 -768927
33874 33875360 756 -317 97363 -15951 -59489 -768956
33879 33879096 1123 -170 97509 -15841 -59597 -769072
33882 33882856 1367 219 97949 -15242 -59991 -769135
33886 33886600 1098 -341 97290 -15317 -60103 -769177
33890 33890352 1416 24 97143 -15048 -60530 -769087
33893 33894084 415 -24 97363 -14703 -59880 -769101
33898 33898556 927 -415 97167 -14856 -59853 -769170
33901 33902296 512 -537 97973 -15234 -59279 -769172
33905 33906020 1171 -585 98217 -15562 -59469 -769178
33909 33909768 854 -683 97778 -16092 -59218 -769234
33912 33913504 537 -219 97021 -16047 -58703 -769114
33916 33917236 634 24 96923 -15687 -58320 -769147
33920 33920948 512 268 96850 -15091 -57769 -769222
33924 33924664 585 0 96874 -14743 -57239 -769201
33928 33928236 1074 -366 97460 -14883 -57303 -769129
33931 33931980 1464 -878 97167 -15662 -57782 -769100
33936 33936480 1269 317 97582 -14964 -58116 -769035
33939 33940232 1318 -48 96948 -14739 -58452 -769049
33943 33943984 927 -488 97607 -14967 -58268 -769105
33947 33947708 1196 -732 97387 -15493 -58483 -769079
33950 33951460 781 -634 97045 -15866 -58325 -769215
33954 33955196 1000 -146 97924 -15679 -58239 -769258
33958 33958952 854 -219 97802 -15613 -58102 -769218
33961 33962700 1074 -317 97265 -15711 -58093 -769205
33966 33966452 537 -97 97998 -15550 -57550 -769234
33969 33970168 878 -488 97607 -15767 -57372 -769190
33982 33982596 512 -170 96801 -15687 -56794 -769342
33985 33986332 1025 -781 97412 -16160 -56977 -769405
33989 33990088 781 -48 98681 -15924 -56740 -769346
33993 33993828 927 -195 97558 -15852 -56690 -769357
33996 33997572 927 -317 96899 -15927 -56617 -769188
34000 34001308 1049 -878 97460 -16655 -56714 -769226
34004 34005068 781 -561 97973 -16876 -56487 -769179
34008 34008808 805 219 97338 -16416 -56329 -769095
34012 34012548 1147 -366 95922 -16547 -56622 -769142
34016 34016292 683 -390 98120 -16662 -56346 -769121
34025 34026252 1464 -219 96655 -16797 -57133 -769293
34029 34030000 1147 -781 97167 -17350 -57325 -769304
34033 34033756 1489 -244 98168 -17390 -57885 -769411
34036 34037500 1171 -488 97045 -17588 -58081 -769358
34040 34041244 1367 -244 97753 -17531 -58544 -769441
34044 34044988 927 -488 97851 -17805 -58333 -769493
34048 34048720 781 -195 98071 -17594 -58153 -769534
34052 34052460 952 -366 97558 -17743 -58149 -769562
34055 34056176 805 -195 97558 -17545 -57932 -769587
34059 34059928 610 -73 98046 -17315 -57378 -769662
34065 34066124 927 268 97241 -16668 -57565 -769619
34069 34069848 1342 -244 98046 -16575 -57983 -769638
34072 34073584 1220 -463 97290 -16762 -58328 -769622
34076 34077336 1855 -561 97729 -17054 -59432 -769495
34080 34081084 1171 48 97241 -16700 -59632 -769565
34083 34084816 1416 -170 97290 -16571 -60067 -769590
34087 34088572 952 -268 97338 -16554 -60045 -769577
34092 34092316 610 317 97363 -15849 -59571 -769601
34095 34096040 683 122 98583 -15449 -59102 -769554
34099 34099768 1416 -97 97119 -15374 -59602 -769513
34103 34104256 1123 -73 97900 -15175 -59748 -769448
34107 34108012 683 97 97753 -14947 -59348 -769321
34111 34111732 805 73 97509 -14535 -59188 -769437
34114 34115452 1708 -73 98583 -14502 -59990 -769348
34118 34119204 1293 122 98486 -14188 -60151 -769368
34122 34122952 463 -146 97436 -13991 -59435 -769383
34125 34126672 122 -195 98291 -13956 -58496 -769458
34129 34130416 1098 -219 98266 -13968 -58660 -769418
34134 34134172 1733 -708 97119 -14553 -59544 -769487
34138 34138644 1367 -317 97241 -14641 -60053 -769532
34142 34142396 1245 -146 97851 -14541 -60327 -769515
34145 34146156 1098 24 97558 -14280 -60417 -769584
34149 34149900 1269 -48 97412 -14105 -60760 -769636
34153 34153648 1098 -48 96508 -13885 -60866 -769596
34156 34157408 1318 170 97485 -13411 -61138 -769555
34160 34161156 1489 -366 98413 -13667 -61721 -769597
34164 34164888 1293 -122 97094 -13564 -62031 -769567
34167 34168644 952 -317 96850 -13721 -61797 -769514
34171 34172372 317 -610 97436 -14195 -60920 -769543
34176 34176848 146 -463 98120 -14467 -60014 -769553
34180 34180576 1318 -756 97802 -15073 -60309 -769540
34184 34184332 1440 -219 97900 -15077 -60783 -769542
34187 34188088 976 73 96606 -14705 -60833 -769403
34191 34191816 781 -903 97070 -15504 -60489 -769354
34195 34195556 1342 -146 98364 -15332 -60870 -769314
34198 34199316 1171 -415 97705 -15511 -61086 -769286
34202 34203076 1171 -292 97460 -15531 -61183 -769374
34206 34206824 1733 -97 96801 -15264 -61962 -769439
34209 34210572 1123 -537 98510 -15606 -61897 -769374
34214 34215076 1098 170 97265 -15158 -61964 -769339
34217 34218824 1562 -24 96337 -14890 -62441 -769441
34222 34222568 1879 48 97143 -14556 -63337 -769506
34226 34226308 -195 -756 97436 -15127 -61840 -769599
34229 34230048 732 -488 97973 -15431 -61543 -769583
34233 34233780 830 -195 97631 -15319 -61219 -769621
34237 34237516 1586 -292 97119 -15353 -61821 -769595
34240 34241280 1416 -244 98193 -15372 -62285 -769676
34244 34245024 1440 73 97558 -15005 -62735 -769659
34248 34248760 219 -488 97875 -15276 -61715 -769665
34252 34253240 488 -634 97143 -15784 -61032 -769758
34256 34256964 1171 -244 97851 -15704 -61295 -769709
34259 34260712 952 -122 97753 -15569 -61087 -769681
34264 34264456 830 -463 97875 -15818 -60765 -769628
34268 34268188 634 268 96777 -15142 -60355 -769560
34271 34271912 1342 -537 97729 -15558 -60722 -769391
34275 34275652 1513 463 98120 -14821 -61333 -769324
34278 34279376 952 -756 97509 -15409 -61234 -769339
34282 34283120 1635 -659 97167 -15835 -61931 -769243
34286 34286876 341 -97 97070 -15691 -61105 -769236
34297 34298624 1147 -830 97534 -16332 -61570 -769736
34301 34302384 732 -805 98144 -17058 -61139 -769689
34306 34306124 1416 -561 97631 -17447 -61511 -769727
34309 34309868 1049 48 97656 -16920 -61404 -769802
34313 34313608 830 -317 97314 -16910 -61166 -769812
34317 34317340 854 -244 97802 -16808 -60921 -769878
34320 34321068 683 268 97167 -16058 -60616 -769721
34324 34324788 1220 122 97900 -15688 -60828 -769745
34327 34328528 1660 -512 97680 -15948 -61567 -769765
34331 34332284 1342 -805 97436 -16635 -61902 -769755
34341 34342364 927 -317 97729 -16807 -61804 -769594
34345 34346096 805 292 97241 -16226 -61439 -769626
34349 34349832 1000 -24 96484 -15798 -61405 -769573
34353 34353576 561 -634 97387 -16224 -60837 -769561
34357 34357312 1635 -366 97363 -16343 -61518 -769558
34360 34361068 585 -708 97167 -16904 -60978 -769505
34364 34364796 830 48 97021 -16516 -60729 -769502
34368 34368532 1464 -561 97802 -16857 -61284 -769553
34371 34372272 1538 -366 97656 -16996 -61857 -769531
34377 34378672 878 -195 97729 -16973 -61569 -769634
34381 34382408 878 0 97485 -16606 -61325 -769608
34385 34385988 561 -195 97143 -16535 -60698 -769669
34388 34389720 1123 -97 97460 -16415 -60871 -769763
34393 34393480 1049 -415 98315 -16601 -60854 -769828
34397 34397228 1171 292 96801 -15985 -60961 -769940
34400 34400972 805 -659 97241 -16435 -60732 -769923
34404 34404720 1318 -756 97607 -17066 -61069 -769957
34408 34408468 1123 -585 97363 -17418 -61160 -769999
34411 34412220 1098 -341 97363 -17608 -61116 -770019
34416 34416716 1171 -244 96899 -17454 -61410 -770033
34419 34420464 512 122 97021 -17008 -60781 -770072
34423 34424188 1098 -439 97851 -17199 -60946 -770069
34427 34427940 341 -195 96850 -17014 -60023 -770056
34430 34431664 659 -439 98071 -17111 -59630 -769952
34435 34435396 1098 -122 97509 -16988 -59746 -769894
34438 34439148 561 -390 97851 -17181 -59172 -769941
34442 34442876 1367 366 97314 -16411 -59646 -769918
34446 34446608 341 -73 98291 -16181 -58797 -769869
34449 34450320 805 -219 97045 -16236 -58668 -769774
34454 34454812 1025 -683 97265 -16673 -58690 -769794
34457 34458564 805 48 96923 -16257 -58384 -769789
34461 34462300 756 48 96923 -15802 -58135 -769895
34465 34466020 1489 -366 97143 -15863 -58683 -769929
34468 34469748 1098 -170 97631 -15715 -58798 -769924
34472 34473512 1049 -488 97656 -15973 -58704 -769908
34477 34477260 1220 -415 97241 -16187 -58905 -769969
34480 34480996 97 -366 98217 -16283 -57930 -770025
34484 34484724 1025 122 97582 -15778 -57886 -770036
34488 34488476 1123 -708 97460 -16307 -58043 -770102
34492 34492980 1220 -317 97485 -16413 -58339 -770203
34496 34496736 1635 -292 96411 -16432 -59044 -770291
34499 34500484 1489 24 97656 -16098 -59616 -770299
34503 34504220 1440 97 98706 -15685 -60059 -770222
34507 34507960 854 -390 97094 -15805 -59862 -770191
34510 34511692 537 -854 96972 -16563 -59263 -770315
34514 34515424 854 366 98632 -15797 -59079 -770248
34519 34519148 1464 122 97436 -15328 -59507 -770277
34522 34522892 1049 -390 96801 -15524 -59565 -770218
34526 34526648 1000 170 97753 -15031 -59574 -770123
34530 34531144 781 -146 98510 -14989 -59278 -770149
34534 34534888 708 -195 97656 -14873 -58910 -770091
34538 34538620 1196 0 96948 -14539 -59181 -770074
34541 34542216 1123 -317 96972 -14598 -59288 -770106
34545 34545964 1000 24 97949 -14335 -59192 -770089
34548 34549692 1269 -170 97314 -14267 -59484 -770073
34552 34553452 1196 -512 96826 -14641 -59686 -770209
34556 34557200 1074 -488 96923 -14893 -59784 -770238
34560 34560944 952 -122 97607 -14940 -59706 -770233
34564 34564692 1098 48 96557 -14570 -59821 -770198
34568 34569196 1391 73 97192 -14095 -60229 -770169
34572 34572932 659 195 98071 -13572 -59794 -770275
34576 34576668 878 -268 98413 -13667 -59634 -770345
34579 34580396 1611 -268 98364 -13759 -60246 -770304
34583 34584148 708 -463 98413 -14029 -59817 -770330
34587 34587872 976 -683 97582 -14546 -59767 -770332
34590 34591612 1147 -73 98120 -14340 -60103 -770187
34594 34595364 1416 -366 98559 -14446 -60506 -770239
34598 34599104 634 -683 96948 -14938 -60064 -770249
34610 34610708 781 -561 97412 -15512 -59600 -770530
34614 34614440 1220 -561 97387 -15911 -59835 -770549
34617 34618184 854 -48 97900 -15625 -59620 -770435
34621 34621920 805 -122 97973 -15428 -59410 -770528
34625 34625664 1489 -219 97216 -15481 -59941 -770589
34628 34629412 1000 -708 98583 -15975 -59887 -770609
34632 34633172 1318 -683 97290 -16437 -60259 -770633
34636 34636924 585 -244 97778 -16295 -59722 -770552
34639 34640652 659 -170 98706 -16131 -59239 -770585
34643 34644392 512 146 98291 -15607 -58508 -770507
34654 34654540 1074 0 97949 -15360 -58539 -770443
34657 34658128 1000 -195 97045 -15300 -58592 -770433
34661 34661888 1123 -268 98071 -15294 -58592 -770448
34665 34665640 634 -73 97241 -15024 -58164 -770527
34668 34669364 1391 415 96801 -14189 -58635 -770529
34672 34673104 805 -73 97656 -13883 -58300 -770558
34676 34676836 537 -317 98217 -14033 -57827 -770504
34679 34680560 341 195 96533 -13472 -57004 -770402
34683 34684276 1269 0 97656 -13188 -57362 -770408
34686 34687868 756 -146 96997 -13126 -57213 -770464
34693 34693268 1074 24 97363 -12879 -57325 -770474
34696 34697004 1147 -317 98120 -13069 -57566 -770445
34700 34700764 952 48 97924 -12767 -57591 -770437
34704 34704492 903 -341 97949 -12920 -57482 -770439
34707 34708232 1318 -439 97558 -13249 -57940 -770428
34711 34711976 1220 -488 97363 -13454 -58150 -770393
34715 34715716 1245 244 98315 -12909 -58353 -770340
34718 34719464 1733 -415 97778 -13196 -59282 -770329
34722 34723212 585 -292 97338 -13177 -58750 -770276
34726 34726940 756 -73 97753 -12981 -58515 -770181
34731 34731420 1123 -317 97582 -13078 -58633 -770099
34735 34735172 1000 -561 97973 -13472 -58591 -770023
34738 34738936 659 -708 98510 -14067 -58239 -769988
34742 34742672 805 -24 97485 -13868 -58083 -770067
34746 34746404 1196 -439 98608 -14177 -58325 -770073
34749 34750152 1171 -73 97900 -14002 -58476 -770100
34753 34753896 1904 -463 97558 -14279 -59520 -770124
34757 34757648 1147 -415 97241 -14451 -59762 -770148
34760 34761396 1098 341 97778 -13706 -59967 -770309
34764 34765132 122 -122 97167 -13589 -58889 -770273
34768 34769624 1586 292 95996 -12901 -59641 -770220
34772 34773368 463 -268 98242 -12955 -59006 -770186
34777 34777096 195 -488 97216 -13253 -58065 -770228
34780 34780824 390 -170 97119 -13248 -57316 -770273
34784 34784548 683 244 96655 -12666 -57038 -770178
34787 34788264 1074 -268 98315 -12826 -57167 -770174
34791 34792016 952 292 98144 -12257 -57111 -770090
34795 34795752 1098 -683 97070 -12872 -57301 -770041
34798 34799500 1708 -219 96386 -12952 -58186 -770043
34802 34803272 1367 -610 97387 -13368 -58714 -769929
34806 34807764 146 -561 97778 -13824 -57716 -769961
34810 34811500 683 -708 97363 -14356 -57330 -769969
34814 34815232 1049 -439 96508 -14530 -57519 -769898
34818 34818972 903 -683 97778 -15087 -57403 -769924
34822 34822712 415 195 97485 -14614 -56635 -769902
34826 34826436 903 -390 97753 -14811 -56619 -769921
34829 34830168 781 -366 97582 -14914 -56266 -769990
34833 34833896 561 -781 97656 -15446 -55817 -770028
34837 34837632 1171 170 97900 -14977 -56193 -770021
34841 34842128 1098 -244 97314 -15101 -56314 -770065
34845 34845880 1171 122 96948 -14609 -56545 -770076
34848 34849624 1269 -73 97338 -14426 -56980 -770084
34852 34853380 634 73 97241 -14100 -56615 -770039
34856 34857100 732 -537 97778 -14530 -56233 -770078
34860 34860820 1025 -219 97338 -14557 -56405 -769848
34864 34864572 1660 -24 97949 -14312 -57182 -769922
34868 34868316 659 -463 97875 -14644 -56734 -769974
34871 34872048 1196 -122 97729 -14518 -57067 -769958
34875 34875808 1196 512 97827 -13581 -57344 -769950
34879 34880292 708 -48 98876 -13395 -56898 -769848
34883 34884024 903 -341 97070 -13593 -56776 -769749
34887 34887748 952 -219 97485 -13668 -56755 -769755
34890 34891496 1586 -415 97607 -13833 -57458 -769793
34894 34895244 1049 -317 97753 -13919 -57562 -769813
34898 34898996 561 0 97167 -13711 -57018 -769846
34902 34902564 1147 -683 97314 -14226 -57348 -769940
34906 34906324 1416 -439 97949 -14414 -57880 -769951
34909 34910068 1123 -415 97485 -14738 -58006 -770038
34913 34913820 1049 -366 96166 -14821 -58078 -770108
34925 34926372 927 -390 97460 -14999 -58095 -770114
34929 34930108 1464 -268 97119 -15011 -58589 -770152
34933 34933856 1220 -146 97558 -14895 -58891 -770208
34936 34937608 610 -488 97949 -15185 -58499 -770197
34940 34941336 805 -170 96411 -15133 -58160 -770144
34945 34945064 561 0 97753 -14897 -57628 -770104
34948 34948632 463 -268 98120 -15024 -57080 -770124
34952 34952356 1000 -268 97582 -15061 -57158 -770034
34955 34956112 1098 -219 97070 -15012 -57395 -769950
34959 34959868 1269 -439 97070 -15257 -57803 -769956
34969 34970140 708 341 96508 -14611 -57756 -769878
34973 34973848 1049 -341 97729 -14669 -57872 -769801
34976 34977588 1318 -634 97485 -15199 -58179 -769754
34980 34981340 854 48 98046 -14886 -58104 -769760
34984 34985068 1220 97 97680 -14581 -58379 -769750
34988 34988820 1000 -439 97924 -14749 -58293 -769697
34992 34992572 585 -219 96557 -14763 -57781 -769762
34996 34996300 341 -488 97631 -15063 -57044 -769851
34999 35000024 830 97 97412 -14622 -56832 -769840
35003 35003752 341 -219 96997 -14588 -56125 -769947
35008 35009348 830 -48 97216 -14225 -56070 -769988
35012 35013088 1538 195 97387 -13728 -56722 -770081
35016 35016840 927 -268 97558 -13719 -56659 -770123
35019 35020576 1000 -292 98339 -13767 -56644 -770131
35023 35024336 878 0 97778 -13451 -56518 -770160
35026 35027908 1025 -317 96972 -13622 -56641 -770015
35031 35031656 1025 -390 97827 -13818 -56750 -770084
35035 35035408 1000 -122 97485 -13698 -56755 -770109
35038 35039164 805 -219 97900 -13662 -56676 -770135
35042 35042912 585 -366 97167 -13837 -56120 -770118
35046 35047376 1684 -366 97241 -14033 -56970 -770120
35050 35051128 1000 -122 97045 -13914 -56916 -770122
35054 35054884 1513 -122 97485 -13760 -57525 -770169
35057 35058632 1000 -24 97558 -13542 -57562 -770043
35061 35062376 488 -366 97241 -13780 -56955 -769941
35065 35066088 1318 -1147 97314 -14913 -57363 -769965
35068 35069852 805 -415 97534 -15094 -57072 -769792
35073 35073592 1245 -195 97875 -15181 -57340 -769812
35077 35077344 1269 24 97705 -14893 -57754 -769750
35081 35081824 805 -390 97412 -15173 -57411 -769897
35085 35085552 1098 -317 97241 -15274 -57579 -769894
35088 35089300 756 -683 97998 -15713 -57312 -769963
35092 35093028 830 -122 97705 -15529 -57175 -770013
35096 35096784 878 -708 97875 -16114 -57100 -770070
35099 35100508 1855 -219 97509 -15977 -58102 -770151
35103 35104264 756 -415 97705 -16197 -57751 -770102
35107 35107984 1611 -708 97973 -16638 -58525 -770113
35110 35111740 805 48 97363 -16199 -58200 -770005
35115 35115468 463 -219 97265 -16133 -57636 -769915
35119 35119944 1196 -512 96606 -16417 -57890 -769898
35123 35123700 1098 170 97680 -16022 -58110 -769831
35127 35127444 1318 -805 97582 -16638 -58589 -769897
35130 35131208 708 -512 96874 -16899 -58213 -769874
35134 35134940 854 -122 97167 -16691 -58074 -769793
35138 35138684 927 -292 96899 -16743 -57986 -769790
35141 35142424 634 -24 96997 -16412 -57522 -769786
35145 35146152 488 -439 97802 -16611 -56939 -769837
35149 35149872 1074 488 97363 -15695 -57060 -769862
35152 35153612 1318 -854 97021 -16413 -57463 -769821
35158 35158124 1049 -756 96923 -16851 -57561 -769754
35161 35161880 1049 73 97290 -16403 -57634 -769762
35165 35165624 756 -341 97973 -16510 -57348 -769805
35169 35169344 634 24 97290 -16146 -56944 -769811
35172 35173068 1098 -439 97900 -16270 -57144 -769746
35176 35176816 756 -341 96972 -16357 -56841 -769784
35179 35180532 805 -390 97558 -16533 -56624 -769739
35183 35184272 1245 -48 96582 -16205 -57046 -769741
35187 35188020 976 -878 98046 -16845 -56947 -769770
35190 35191752 1000 -366 97436 -16884 -56998 -769780
35195 35196240 1269 97 97460 -16454 -57308 -769630
35198 35199972 1464 -317 97924 -16621 -57822 -769571
35203 35203712 1416 97 97216 -16203 -58310 -769499
35207 35207448 1000 634 96679 -15076 -58307 -769560
35210 35211184 610 122 97949 -14679 -57866 -769519
35214 35214928 1074 -415 97290 -14861 -57914 -769564
35218 35218688 1220 -512 98193 -15197 -58135 -769547
35221 35222428 854 0 97265 -14946 -58032 -769469
35225 35226012 1049 24 97778 -14663 -58142 -769411
35229 35229744 952 -97 98364 -14505 -58097 -769454
35241 35242184 1245 -146 97802 -14519 -58780 -769222
35245 35245928 1586 -195 97363 -14470 -59609 -769370
35249 35249692 1245 -48 97851 -14225 -59827 -769244
35253 35253440 659 -561 97802 -14597 -59425 -769300
35256 35257180 878 -122 97778 -14555 -59307 -769369
35260 35260932 1098 -292 97998 -14709 -59352 -769416
35264 35264684 634 -415 96435 -14871 -58829 -769404
35267 35268412 1416 146 97705 -14449 -59372 -769388
35271 35272156 1245 -390 97363 -14642 -59672 -769398
35275 35275900 561 -341 98095 -14756 -59130 -769381
35286 35286252 488 -195 97631 -14721 -58321 -769319
35289 35289972 463 268 98583 -14292 -57669 -769339
35293 35293692 805 -561 98071 -14693 -57488 -769304
35297 35297432 781 -73 97656 -14543 -57322 -769415
35300 35301164 952 -537 97534 -14930 -57276 -769350
35304 35304896 1440 -219 97119 -14854 -57829 -769397
35308 35308644 805 -292 98291 -14848 -57625 -769453
35311 35312392 927 -561 96142 -15244 -57554 -769480
35315 35316148 1171 -585 96997 -15648 -57854 -769426
35321 35322376 805 -830 96337 -16381 -57662 -769612
35325 35326120 976 -170 97631 -16217 -57571 -769638
35329 35329856 537 -219 97314 -16097 -57033 -769634
35333 35333584 805 24 97436 -15768 -56817 -769649
35337 35337312 1293 -146 97460 -15610 -57202 -769641
35340 35341076 878 -512 97949 -15879 -57085 -769661
35344 35344824 830 -317 97607 -15884 -56949 -769603
35348 35348556 1049 -415 96777 -16093 -56954 -769705
35351 35352300 805 -390 97070 -16183 -56723 -769677
35355 35356036 1147 268 98291 -15649 -56971 -769696
35359 35360528 1171 -537 98291 -15961 -57161 -769686
35363 35364284 1367 -415 97387 -16107 -57599 -769738
35367 35368032 292 97 97021 -15651 -56762 -769789
35371 35371752 1098 24 97045 -15218 -56960 -769685
35375 35375484 1367 -219 97216 -15199 -57432 -769645
35379 35379236 1049 -73 97558 -14958 -57570 -769642
35382 35382984 830 -854 97778 -15797 -57271 -769625
35386 35386728 854 -439 97460 -15988 -57179 -769581
35389 35390460 1196 -268 98510 -16007 -57386 -769605
35393 35394216 756 -708 96899 -16517 -57139 -769552
35398 35398704 1025 0 97021 -16179 -57219 -769578
35401 35402308 903 -97 97363 -15940 -57209 -769629
35405 35406044 1562 -561 97387 -16326 -57920 -769653
35408 35409796 390 -24 97412 -16147 -57089 -769631
35412 35413516 1196 -341 98364 -16083 -57347 -769584
35417 35417272 927 268 97998 -15505 -57248 -769617
35420 35420992 1000 439 98242 -14718 -57222 -769576
35424 35424736 1220 -219 97265 -14632 -57515 -769637
35428 35428484 756 -195 97558 -14622 -57146 -769652
35431 35432212 927 -268 97363 -14644 -57136 -769715
35436 35436708 854 -512 97582 -14953 -57080 -769797
35439 35440448 1049 268 97485 -14421 -57190 -769756
35443 35444188 903 0 97167 -14051 -57093 -769849
35446 35447760 1000 -219 96801 -14029 -57082 -769905
35450 35451524 610 244 97167 -13543 -56713 -769931
35454 35455248 878 73 97753 -13168 -56728 -769939
35458 35458972 1342 -170 97509 -13086 -57171 -769929
35462 35462728 1684 122 97192 -12757 -57959 -769906
35466 35466480 878 -146 97631 -12687 -57867 -769830
35469 35470216 830 0 97045 -12504 -57641 -769917
35474 35474544 1293 195 97143 -12011 -58026 -769681
35477 35478296 1074 -317 98510 -12103 -58091 -769646
35481 35482048 1342 122 97998 -11645 -58458 -769611
35485 35485796 1196 -585 97290 -12124 -58675 -769493
35488 35489552 732 -415 97387 -12327 -58381 -769605
35492 35493288 1049 97 97460 -11988 -58456 -769625
35496 35497028 1464 146 96826 -11580 -58942 -769492
35500 35500772 1586 48 97363 -11122 -59654 -769415
35504 35504524 1000 -708 98486 -11642 -59598 -769430
35508 35508276 1464 -708 98559 -12195 -60064 -769468
35512 35512764 1245 -48 96850 -11996 -60455 -769421
35516 35516516 1049 -24 97338 -11834 -60481 -769445
35519 35520276 244 0 97265 -11512 -59529 -769453
35523 35523852 1025 -97 98632 -11417 -59623 -769523
35526 35527592 1367 -97 97558 -11285 -60090 -769617
35530 35531340 1098 -585 97656 -11781 -60111 -769539
35534 35535092 878 -48 97705 -11670 -59903 -769596
35537 35538820 854 -195 97070 -11654 -59641 -769616
35542 35542572 927 -1171 97875 -12851 -59534 -769588
35546 35546336 1074 -122 97656 -12804 -59612 -769561
35557 35558112 1025 -195 98071 -12773 -59240 -769677
35561 35561872 1660 -561 97460 -13240 -60051 -769600
35565 35565616 952 -390 96679 -13437 -59938 -769634
35568 35569356 1123 97 98168 -13096 -60043 -769562
35572 35573100 683 -463 97045 -13385 -59622 -769436
35575 35576820 732 -488 97558 -13699 -59308 -769460
35579 35580552 1489 -73 96948 -13547 -59845 -769517
35584 35584288 1293 -512 97094 -13868 -60163 -769433
35587 35588032 878 -463 97460 -14129 -60094 -769496
35598 35598496 659 -97 98022 -13928 -59512 -769608
35601 35602224 976 -756 97241 -14511 -59496 -769640
35605 35605964 512 -659 97045 -15047 -58978 -769591
35609 35609688 683 -659 98217 -15501 -58622 -769730
35612 35613432 805 -488 97949 -15773 -58428 -769786
35616 35617164 1855 -756 96972 -16423 -59411 -769838
35620 35620912 1416 -390 98046 -16609 -59783 -769794
35623 35624660 805 -317 97705 -16692 -59516 -769773
35628 35628396 1074 -463 97021 -16901 -59536 -769784
35632 35632144 1025 0 97070 -16536 -59569 -769826
35638 35638404 366 24 97998 -16112 -58805 -769765
35641 35642104 708 -659 97558 -16461 -58466 -769828
35645 35645840 1342 -903 97338 -17168 -58890 -769825
35649 35649592 634 -830 97802 -17698 -58411 -769812
35652 35653336 463 -195 97021 -17621 -57832 -769839
35656 35657068 1000 -122 97924 -17402 -57909 -769808
35660 35660836 1171 -732 98461 -17829 -58091 -769773
35663 35664584 1025 -585 97338 -18287 -58130 -769720
35667 35668336 1049 -219 96874 -18270 -58161 -769734
35672 35672088 659 -219 97534 -18234 -57754 -769740
35676 35676572 1684 -439 97094 -18410 -58622 -769803
35680 35680324 683 -561 96948 -18710 -58284 -769790
35683 35684064 830 -195 97436 -18540 -57962 -769743
35687 35687804 878 -195 97119 -18462 -57777 -769722
35691 35691544 512 -537 96728 -18764 -57242 -769714
35694 35695272 1074 -195 98022 -18628 -57382 -769667
35698 35699028 903 -439 97656 -18739 -57244 -769627
35701 35702760 1123 -512 97875 -18986 -57499 -769738
35705 35706508 878 -415 98022 -19240 -57340 -769759
35709 35710244 1049 -488 97412 -19357 -57374 -769974
35714 35714728 854 -439 97045 -19390 -57152 -770137
35718 35718460 903 -146 97509 -19161 -56963 -770115
35721 35722192 732 -317 97412 -19208 -56774 -770016
35725 35725928 927 -439 97607 -19315 -56668 -770018
35729 35729660 585 73 97680 -18842 -56347 -770033
35732 35733376 1611 48 98120 -18497 -57161 -770022
35736 35737128 854 -24 97900 -18131 -56957 -769957
35740 35740860 1220 -195 97900 -17987 -57265 -769977
35743 35744616 732 -73 97485 -17689 -56992 -769973
35747 35748348 1489 268 97558 -17023 -57533 -769832
35751 35752820 1538 -97 97509 -16811 -58204 -769720
35756 35756572 1000 -292 97265 -16815 -58187 -769689
35760 35760332 927 -512 97949 -17122 -58176 -769654
35763 35764056 1000 -708 97631 -17526 -58169 -769772
35767 35767804 1000 -97 97998 -17267 -58184 -769796
35771 35771564 830 -24 97875 -16972 -57979 -769830
35774 35775296 610 195 97558 -16372 -57595 -769758
35778 35779032 1293 195 96386 -15838 -57999 -769750
35782 35782780 1269 -122 97631 -15637 -58351 -769729
35785 35786544 708 -634 97436 -16076 -58022 -769713
35790 35791032 830 -48 97363 -15913 -57862 -769806
35793 35794772 415 -585 96655 -16360 -57142 -769808
35798 35798504 781 -634 97241 -16828 -56949 -769791
35802 35802248 634 -512 97387 -17134 -56539 -769816
35805 35805976 805 -122 97241 -16928 -56327 -769909
35809 35809732 1171 -73 97680 -16702 -56561 -769846
35813 35813476 1489 -244 97265 -16672 -57112 -769889
35816 35817220 781 -292 96777 -16757 -56829 -769818
35820 35820960 610 -1196 97607 -17794 -56422 -769791
35824 35825460 1196 195 97729 -17250 -56612 -769793
35828 35829216 1147 97 98535 -16687 -56778 -769758
35832 35832960 805 -195 97558 -16632 -56538 -769709
35835 35836696 732 -146 97558 -16380 -56273 -769735
35840 35840436 1440 -244 97045 -16334 -56794 -769920
35844 35844180 1000 24 97631 -16005 -56770 -769935
35847 35847920 1147 -463 98364 -16212 -56995 -769888
35851 35851676 1440 -512 97827 -16582 -57631 -769899
35855 35855416 1147 -97 97192 -16405 -57768 -769882
35858 35859172 976 97 96777 -16086 -57751 -769902
35870 35870776 1147 -561 97680 -16700 -57989 -769723
35873 35874528 1049 -659 97509 -17181 -58081 -769694
35877 35878284 1049 -268 97290 -17203 -58106 -769737
35881 35882020 1391 -292 97656 -17327 -58522 -769738
35885 35885768 805 195 97802 -16816 -58259 -769814
35889 35889504 878 341 97729 -16025 -58151 -769801
35892 35893220 854 -756 96899 -16643 -58016 -769729
35896 35896956 1269 -488 98388 -16884 -58405 -769743
35900 35900704 976 -341 97241 -17070 -58437 -769786
35903 35904424 1684 -561 97607 -17422 -59131 -769794
35914 35914996 756 -610 96655 -17511 -58486 -769890
35917 35918724 1269 -195 98144 -17442 -58852 -769880
35921 35922480 878 -610 97875 -17764 -58685 -769851
35926 35926224 878 -268 97680 -17741 -58452 -769865
35929 35929964 366 48 96923 -17244 -57733 -769757
35933 35933680 537 170 97192 -16710 -57243 -769763
35937 35937404 952 48 96874 -16322 -57251 -769687
35940 35941136 488 -292 97973 -16367 -56706 -769640
35944 35944872 1000 73 97412 -15953 -56776 -769669
35948 35948624 878 -390 96874 -16109 -56603 -769574
35953 35954024 1220 -610 97631 -16487 -56821 -769553
35957 35957780 732 -317 97167 -16530 -56544 -769527
35960 35961516 1123 -512 97778 -16842 -56770 -769529
35964 35965268 756 97 98608 -16426 -56446 -769485
35968 35968980 292 170 96948 -15927 -55650 -769523
35972 35972704 878 -439 97241 -16250 -55560 -769531
35976 35976440 1171 -366 97021 -16416 -55859 -769550
35979 35980172 732 -537 97436 -16718 -55573 -769522
35983 35983904 1123 -292 97705 -16807 -55756 -769500
35987 35987656 1147 -488 97802 -16854 -55971 -769502
35991 35992148 1440 -292 97998 -16873 -56520 -769458
35995 35995904 1245 390 97509 -16112 -56839 -769377
35998 35999636 1074 -195 97485 -16054 -56929 -769403
36002 36003384 708 -317 97656 -16134 -56543 -769399
36006 36007112 659 0 97119 -15775 -56211 -769520
36009 36010680 659 195 98339 -15163 -55832 -769423
36014 36014412 952 -48 98583 -14992 -55862 -769424
36017 36018152 1000 488 97094 -14102 -55975 -769393
36021 36021896 756 -292 97875 -14300 -55687 -769438
36025 36025632 1489 -708 97363 -14931 -56335 -769444
36029 36030116 952 -268 97778 -15043 -56405 -769507
36033 36033868 537 -73 97851 -14832 -55861 -769431
36036 36037584 683 -1025 96679 -15840 -55603 -769487
36040 36041336 683 -195 97241 -15794 -55188 -769477
36044 36045068 610 195 98413 -15250 -54786 -769419
36047 36048804 1293 -634 97729 -15790 -55207 -769445
36051 36052560 732 -97 97338 -15491 -55084 -769424
36056 36056288 976 -146 97656 -15442 -55074 -769472
36059 36060020 854 -73 97924 -15128 -55055 -769632
36063 36063752 1269 -390 97705 -15372 -55308 -769643
36067 36068236 292 -610 97143 -15820 -54505 -769571
36071 36071968 756 -146 98120 -15593 -54303 -769582
36075 36075700 1171 -317 96923 -15732 -54611 -769588
36078 36079444 756 -708 97607 -16313 -54257 -769455
36082 36083164 830 -537 97680 -16634 -54185 -769425
36086 36086900 488 -292 98095 -16692 -53622 -769440
36089 36090624 683 -170 97021 -16583 -53303 -769442
36093 36094364 561 170 97851 -16110 -52930 -769505
36098 36098084 659 -170 97680 -15966 -52554 -769561
36102 36102568 1293 -48 98583 -15774 -53084 -769599
36106 36106320 781 -488 97827 -16038 -52942 -769555
36109 36110060 781 -170 97338 -15846 -52790 -769496
36113 36113800 610 48 96582 -15489 -52575 -769543
36117 36117528 805 195 97338 -14939 -52534 -769604
36120 36121268 1000 -488 98095 -15234 -52586 -769642
36124 36125020 1782 -366 96533 -15457 -53650 -769639
36127 36128752 1074 -585 97705 -15785 -53836 -769618
36131 36132512 390 -195 97290 -15686 -53225 -769674
36135 36136256 1318 122 97778 -15247 -53696 -769653
36140 36140748 878 -341 96435 -15407 -53642 -769649
36144 36144480 1342 -292 97045 -15430 -54163 -769586
36147 36148220 610 -708 97924 -15936 -53753 -769532
36151 36151960 390 -634 97534 -16428 -53208 -769656
36155 36155684 488 -415 97290 -16606 -52750 -769575
36158 36159396 805 439 96606 -15799 -52668 -769638
36162 36163128 830 341 97680 -15009 -52582 -769713
36166 36166848 1684 24 97290 -14734 -53496 -769719
36169 36170580 1147 -854 97729 -15505 -53837 -769758
36173 36174340 1757 -537 97363 -15750 -54819 -769782
36186 36186900 732 -366 98046 -16152 -54674 -769451
36190 36190624 1098 -122 98754 -15992 -54788 -769484
36194 36194384 854 -244 96801 -15992 -54658 -769467
36197 36198124 830 -415 98437 -16059 -54531 -769414
36201 36201860 903 -463 98193 -16300 -54480 -769411
36205 36205600 1293 -756 96826 -16860 -54926 -769394
36208 36209356 1293 512 98413 -15991 -55304 -769274
36212 36213092 1098 -292 97924 -16094 -55545 -769285
36216 36216840 976 -415 96508 -16264 -55612 -769304
36219 36220584 488 -463 97778 -16446 -54963 -769385
36231 36231228 878 -244 98217 -16350 -55036 -769273
36234 36234964 1953 -317 96850 -16373 -56251 -769330
36238 36238720 830 -805 97216 -17098 -56050 -769331
36242 36242464 854 -756 98120 -17648 -55904 -769429
36245 36246208 854 -97 98022 -17300 -55731 -769388
36249 36249944 1538 -610 97680 -17723 -56411 -769371
36252 36253688 1342 146 97143 -17151 -56871 -769285
36256 36257436 781 -561 98022 -17487 -56616 -769385
36260 36261172 488 -73 97241 -17250 -56068 -769368
36263 36264888 756 146 98413 -16787 -55797 -769260
36270 36270488 781 -488 97656 -16926 -55478 -769316
36274 36274216 1245 -830 98095 -17570 -55764 -769317
36277 36277972 537 -488 97509 -17815 -55195 -769209
36281 36281688 1123 -341 97265 -17878 -55463 -769165
36284 36285428 976 0 97460 -17520 -55466 -769184
36288 36289024 1171 -585 97582 -17879 -55602 -769122
36292 36292768 1098 24 98315 -17479 -55770 -769270
36295 36296504 1196 -634 97387 -17852 -55960 -769180
36299 36300248 1318 -292 97558 -17887 -56375 -769168
36303 36303996 1391 -24 97216 -17526 -56915 -769196
36307 36308480 805 -561 97021 -17673 -56809 -769145
36312 36312220 878 219 97656 -17092 -56713 -769376
36315 36315948 756 -195 97167 -17076 -56465 -769396
36319 36319680 634 -195 97241 -17062 -55998 -769420
36323 36323412 708 -292 96826 -17009 -55742 -769440
36326 36327148 1025 0 98242 -16662 -55895 -769496
36330 36330744 976 244 97412 -16031 -55934 -769347
36333 36334472 756 439 98095 -15334 -55657 -769398
36337 36338196 927 97 97558 -14972 -55705 -769338
36341 36341928 952 -634 97582 -15457 -55690 -769367
36345 36346412 781 -146 97045 -15357 -55633 -769247
36349 36350156 1245 -463 98144 -15620 -56003 -769237
36353 36353896 903 0 97241 -15259 -56031 -769251
36357 36357484 1245 -170 97167 -15195 -56374 -769234
36361 36361232 708 -48 97021 -15011 -56100 -769213
36364 36364964 830 -439 97973 -15200 -55984 -769312
36368 36368704 1196 -219 98632 -15132 -56308 -769327
36371 36372452 512 -512 97265 -15473 -55767 -769306
36375 36376176 1123 -317 96484 -15492 -56063 -769283
36379 36380664 976 48 97485 -15094 -56059 -769334
36383 36384404 1367 -122 97558 -14887 -56597 -769421
36387 36388156 1538 -268 97241 -14954 -57187 -769455
36390 36391892 683 -219 96850 -14887 -56892 -769511
36395 36395628 1171 -463 98339 -15084 -57089 -769529
36399 36399376 585 -317 97680 -15248 -56706 -769525
36402 36403100 976 -366 97802 -15491 -56817 -769576
36406 36406832 1269 -195 97924 -15552 -57028 -769718
36410 36410584 439 -781 98266 -16178 -56395 -769752
36413 36414312 854 -146 97436 -15972 -56254 -769967
36418 36418808 1245 -244 97998 -15973 -56566 -769969
36421 36422552 1000 0 97460 -15647 -56761 -769989
36425 36426152 1049 -708 98022 -16187 -56798 -769963
36429 36429900 1245 -415 97558 -16355 -57115 -769933
36432 36433652 781 -48 97143 -16019 -56972 -769837
36436 36437392 732 -659 96948 -16590 -56680 -769771
36441 36441124 830 -195 97534 -16491 -56570 -769736
36444 36444884 1367 -268 98071 -16361 -56994 -769647
36448 36448628 366 -97 96801 -16099 -56238 -769657
36451 36452332 952 -756 97436 -16622 -56210 -769654
36456 36456820 878 24 97680 -16331 -56140 -769601
36459 36460536 1147 73 97119 -15891 -56415 -769588
36463 36464284 683 -244 98095 -15707 -55959 -769572
36467 36468012 1000 -366 97070 -15785 -55999 -769665
36470 36471748 952 -341 98779 -15828 -56073 -769606
36474 36475480 1196 -366 97045 -16039 -56291 -769650
36478 36479216 805 48 97192 -15767 -56091 -769768
36482 36482944 1416 -170 97607 -15592 -56589 -769794
36486 36486696 708 -488 97631 -15821 -56391 -769787
36490 36490416 634 122 97973 -15262 -55920 -769861
36502 36502840 1245 97 97094 -15108 -56000 -769794
36505 36506568 1342 -561 96923 -15429 -56472 -769891
36509 36510312 1831 -122 98168 -15297 -57401 -769978
36513 36514068 1000 122 97827 -14825 -57407 -770085
36516 36517820 756 -73 96655 -14555 -57168 -770038
36520 36521552 1000 -268 97216 -14654 -57226 -770018
36525 36525308 1123 -170 96899 -14598 -57377 -769964
36528 36529052 1464 -878 98046 -15225 -58001 -769844
36532 36532796 512 -463 97192 -15472 -57307 -769913
36536 36536516 1220 -219 97705 -15509 -57660 -769878
36546 36547288 1098 -610 98022 -15828 -57904 -769530
36550 36551048 488 -415 97265 -15990 -57326 -769555
36554 36554780 683 561 97290 -15053 -57020 -769542
36557 36558504 390 -24 98095 -14863 -56299 -769575
36561 36562220 1293 268 96704 -14274 -56684 -769640
36564 36565960 1489 -488 97070 -14429 -57419 -769665
36569 36569692 878 -659 97192 -14917 -57277 -769594
36573 36573436 683 -830 97265 -15699 -56945 -769609
36576 36577172 1586 -219 97485 -15666 -57605 -769580
36580 36580928 1025 219 97143 -15128 -57722 -769600
36586 36587148 805 -146 97827 -14951 -57663 -769576
36590 36590892 878 0 96899 -14687 -57575 -769541
36593 36594464 659 97 97119 -14241 -57207 -769518
36597 36598196 781 -73 97607 -14042 -57020 -769565
36601 36601940 1440 195 97094 -13593 -57552 -769544
36604 36605680 1367 -170 97363 -13513 -57979 -769470
36609 36609432 854 415 98583 -12800 -57889 -769485
36613 36613164 537 -244 97314 -12880 -57242 -769440
36616 36616892 1000 -341 97705 -13040 -57264 -769461
36621 36621396 292 -73 97631 -12907 -56510 -769377
36624 36625128 781 -903 97021 -13756 -56290 -769354
36628 36628876 1611 244 97070 -13107 -57017 -769402
36632 36632616 903 -488 97729 -13439 -56962 -769398
36635 36636348 537 0 97509 -13163 -56424 -769364
36639 36639924 878 366 97387 -12554 -56387 -769402
36642 36643640 1416 0 96020 -12367 -56925 -769483
36646 36647224 1220 -634 97363 -12812 -57213 -769539
36649 36650968 756 -48 96582 -12631 -56913 -769431
36654 36654712 976 -415 97314 -12842 -56888 -769427
36658 36659196 683 219 96826 -12396 -56541 -769459
36662 36662932 732 -463 97338 -12813 -56224 -769565
36666 36666652 1318 -634 97485 -13307 -56653 -769608
36669 36670400 1269 0 97656 -13039 -57069 -769701
36673 36674000 610 -219 97167 -13042 -56705 -769766
36677 36677736 1245 488 97534 -12220 -57096 -769841
36680 36681476 1342 -195 96874 -12140 -57530 -769751
36684 36685228 683 219 97875 -11639 -57184 -769785
36688 36688964 610 0 98315 -11410 -56733 -769919
36691 36692540 610 -756 98022 -12028 -56304 -770051
36696 36697020 1049 -561 97290 -12478 -56336 -770053
36700 36700772 659 -708 97460 -13059 -55894 -769957
36704 36704508 903 -73 97119 -12839 -55877 -769963
36707 36708236 1391 -317 97045 -12968 -56462 -769953
36711 36711980 878 -659 96972 -13469 -56287 -769912
36715 36715720 1513 -195 98608 -13358 -56879 -769803
36718 36719460 1416 -585 97241 -13870 -57493 -769860
36722 36723208 1000 -219 97338 -13797 -57580 -769875
36726 36726964 878 -24 97802 -13612 -57565 -769931
36729 36730688 878 -48 97534 -13306 -57500 -769946
36734 36735176 1367 -366 97753 -13588 -58034 -770009
36738 36738908 708 -390 98657 -13685 -57695 -770029
36742 36742644 854 -195 96752 -13628 -57651 -770021
36746 36746384 1025 -488 99609 -13970 -57659 -769986
36749 36750132 585 -24 98071 -13772 -57214 -770067
36753 36753856 -24 97 96899 -13345 -56041 -770192
36757 36757584 1074 -585 98242 -13729 -56204 -770162
36760 36761336 854 -122 98217 -13638 -56124 -770273
36764 36765084 366 -415 97827 -13878 -55533 -770201
36768 36768796 1586 -317 96948 -14001 -56262 -770185
36772 36773296 805 -463 96386 -14284 -56088 -770247
36776 36777036 561 24 98193 -14082 -55579 -770176
36780 36780756 1489 122 97070 -13536 -56201 -770233
36784 36784496 976 -122 97534 -13444 -56260 -770230
36788 36788244 415 -463 97851 -13717 -55647 -770130
36791 36791972 659 24 98144 -13521 -55255 -770102
36795 36795692 1586 292 96655 -12948 -55990 -770185
36798 36799428 1538 97 97631 -12639 -56717 -770120
36802 36803172 1074 -317 97851 -12817 -56810 -769988
36806 36806916 634 -219 96630 -12762 -56521 -769985
36817 36818676 1489 -268 97558 -12909 -57156 -770118
36822 36822412 1220 -463 98120 -13173 -57366 -770041
36826 36826156 1049 -390 97143 -13473 -57488 -770038
36829 36829900 1367 -122 98437 -13357 -57911 -770186
36833 36833652 805 73 97485 -12980 -57636 -770238
36836 36837372 1757 -292 96728 -13040 -58480 -770253
36840 36841128 341 -146 97021 -13059 -57726 -770218
36844 36844860 732 -488 97802 -13356 -57451 -770325
36847 36848576 1245 -537 98291 -13690 -57783 -770259
36851 36852324 1464 -244 96630 -13681 -58382 -770347
36862 36863192 634 -219 97949 -13760 -58120 -770134
36866 36866924 1000 0 97705 -13466 -58244 -770044
36870 36870528 1538 -73 98095 -13326 -58992 -769945
36874 36874268 1098 -1025 96557 -14312 -59089 -769914
36877 36878040 341 -341 96874 -14495 -58281 -769824
36881 36881756 878 -122 96704 -14335 -58138 -769940
36884 36885492 1049 -97 97509 -14234 -58312 -769891
36888 36889244 1171 -756 96582 -14787 -58446 -769954
36892 36892996 1318 -317 97460 -14904 -58889 -769923
36898 36899364 0 -122 97705 -14792 -57763 -769880
36902 36902952 830 -561 97827 -15113 -57495 -769863
36905 36906688 585 -244 96972 -15098 -57059 -769888
36910 36910432 927 -366 97827 -15189 -57062 -769899
36913 36914148 1367 -561 97827 -15537 -57531 -769909
36917 36917896 634 -390 97705 -15755 -57034 -769905
36921 36921624 756 -73 98242 -15471 -56816 -769920
36924 36925340 1318 0 96948 -15167 -57142 -769965
36928 36928936 1806 -537 96411 -15479 -58105 -769930
36932 36932692 512 -390 97680 -15640 -57526 -769885
36936 36937172 1171 -1147 97192 -16763 -57709 -770076
36940 36940936 1147 -439 96850 -16933 -57876 -770050
36943 36944688 1147 -585 96899 -17185 -58099 -770058
36947 36948444 878 -488 97558 -17485 -57933 -770090
36952 36952172 781 -537 97900 -17746 -57607 -770101
36955 36955912 1269 -585 97021 -18177 -58062 -770060
36959 36959660 830 48 98046 -17783 -57834 -770034
36963 36963392 878 -24 97241 -17428 -57744 -769976
36966 36967132 781 73 96582 -16968 -57605 -770051
36970 36970856 1049 -463 97338 -17192 -57765 -769910
36974 36975348 1293 -488 96874 -17508 -58163 -769845
36978 36979096 1611 -830 96826 -18162 -58920 -769828
36982 36982860 1391 -756 97436 -18746 -59337 -769857
36985 36986608 1074 -585 97338 -19030 -59516 -769853
36989 36990356 708 -317 97900 -19002 -59112 -769922
36994 36994092 1416 -219 97021 -18805 -59620 -769923
36997 36997848 1562 -756 97265 -19361 -60399 -769882
37001 37001596 952 -122 96777 -19230 -60376 -769875
37005 37005340 756 -268 97265 -19071 -60145 -769890
37008 37009064 805 -244 97705 -19011 -59934 -769971
37013 37013552 903 -659 97778 -19372 -59692 -770034
37016 37017292 1025 -463 97656 -19504 -59677 -770109
37020 37021044 1318 -73 98217 -19248 -60017 -770037
37024 37024784 268 -268 97705 -19258 -59005 -770048
37027 37028496 1025 24 97656 -18891 -59004 -770037
37031 37032232 439 -73 97558 -18581 -58402 -770034
37035 37035948 1757 -317 97216 -18679 -59417 -770067
37039 37039704 830 97 97631 -18053 -59191 -770014
37043 37043432 805 -317 98413 -18141 -58990 -770079
37046 37047164 1220 -732 97680 -18672 -59289 -770051
37051 37051664 756 195 98291 -18040 -58979 -770022
37054 37055384 1318 -659 96850 -18458 -59311 -769993
37058 37059140 1123 -341 98730 -18569 -59439 -770026
37062 37062892 512 244 97509 -17919 -58862 -769995
37065 37066604 1000 -317 97192 -17981 -58756 -769918
37069 37070364 1489 -244 97753 -17862 -59340 -769951
37073 37074104 1513 -463 96313 -18061 -59917 -770016
37076 37077844 439 24 97070 -17662 -59319 -769881
37081 37081560 1049 170 97656 -17166 -59346 -769901
37085 37085304 927 -244 98339 -17169 -59236 -769834
37089 37089788 1171 48 98095 -16785 -59521 -770001
37093 37093528 1171 -756 97875 -17371 -59662 -770025
37096 37097276 732 -244 97534 -17393 -59316 -770210
37100 37101000 1293 -170 97216 -17291 -59596 -770234
37104 37104744 732 -195 96997 -17215 -59265 -770254
37107 37108488 1440 -317 98022 -17259 -59751 -770250
37111 37112232 708 -463 96777 -17471 -59403 -770397
37115 37115960 976 537 97680 -16446 -59270 -770362
37118 37119684 1708 -708 97607 -17074 -60000 -770296
37131 37131308 1513 -1025 97436 -17886 -60414 -770217
37134 37135060 390 24 98071 -17547 -59644 -770262
37138 37138772 976 -48 97729 -17181 -59618 -770290
37141 37142500 1245 0 97656 -16895 -59823 -770214
37145 37146088 756 -317 97680 -16875 -59537 -770183
37149 37149812 1196 -292 97558 -16899 -59796 -770157
37152 37153572 1416 -561 97363 -17214 -60248 -770196
37156 37157324 1074 -24 98071 -16970 -60288 -770179
37160 37161060 561 -244 97705 -16940 -59669 -770150
37164 37164792 1123 -73 98193 -16823 -59857 -770189
37175 37175768 976 -219 97241 -16922 -59869 -770361
37179 37179520 463 -195 97558 -16866 -59225 -770417
37182 37183244 1318 -97 97558 -16667 -59601 -770480
37186 37187000 1367 146 97387 -16129 -60053 -770418
37190 37190744 976 -146 98168 -15959 -59964 -770501
37193 37194496 1367 488 97656 -15149 -60428 -770418
37197 37198232 488 366 97729 -14353 -59805 -770419
37201 37201940 1049 -195 96874 -14337 -59842 -770425
37204 37205688 708 -219 97875 -14441 -59428 -770252
37209 37209424 1000 -610 97460 -14896 -59438 -770230
37214 37214868 1000 -390 97949 -15121 -59360 -770088
37218 37218612 903 -341 97778 -15191 -59209 -770135
37221 37222344 1416 -561 97338 -15606 -59803 -770219
37225 37226080 1171 146 97338 -15133 -59992 -770233
37229 37229836 1049 -97 97167 -14940 -59909 -770207
37232 37233580 952 97 97216 -14555 -59820 -770166
37236 37237312 878 -170 96533 -14484 -59595 -770143
37240 37241052 854 -122 97070 -14373 -59492 -770108
37243 37244792 390 -512 97265 -14551 -58738 -770079
37248 37248516 1416 146 97509 -14123 -59232 -770161
37252 37253004 634 -366 97216 -14187 -58849 -770260
37256 37256720 1098 -292 98022 -14290 -58934 -770436
37260 37260476 1171 -24 98095 -14032 -59083 -770506
37263 37264224 878 -268 97167 -14079 -58967 -770556
37267 37267968 463 -439 98486 -14420 -58269 -770613
37271 37271692 976 -268 97875 -14383 -58251 -770696
37274 37275424 1147 317 96923 -13701 -58394 -770613
37278 37279172 1391 -488 98461 -13990 -58791 -770701
37282 37282920 1464 -146 97167 -13873 -59244 -770652
37285 37286672 756 -463 97119 -14130 -59005 -770739
37291 37291156 1049 73 98022 -13664 -59029 -770780
37294 37294900 463 -756 96801 -14351 -58385 -770666
37298 37298628 439 0 96752 -14023 -57778 -770667
37301 37302192 927 -439 97338 -14322 -57732 -770623
37305 37305928 634 -268 98437 -14335 -57376 -770661
37309 37309660 781 219 97363 -13883 -57138 -770686
37312 37313388 1098 0 97485 -13694 -57310 -770687
37316 37316992 1269 -170 96972 -13613 -57619 -770739
37320 37320744 659 268 98242 -13035 -57293 -770709
37323 37324472 1171 -976 96679 -13937 -57476 -770668
37328 37328980 1416 -415 97290 -14128 -57993 -770615
37331 37332732 1342 -170 97241 -14076 -58370 -770701
37336 37336476 1000 0 97582 -13785 -58351 -770730
37339 37340076 1123 366 97216 -13135 -58498 -770704
37343 37343808 756 -292 97900 -13214 -58118 -770742
37347 37347548 683 73 97998 -12958 -57745 -770789
37350 37351260 830 122 97070 -12517 -57558 -770901
37354 37355004 1879 -415 97827 -12775 -58621 -771012
37358 37358752 1074 48 97973 -12502 -58727 -771119
37361 37362492 683 -561 98095 -12943 -58285 -771151
37366 37366976 1123 -537 97949 -13222 -58361 -771202
37369 37370720 1611 317 97534 -12452 -59056 -771210
37373 37374468 854 -659 97314 -13032 -58910 -771096
37378 37378212 976 -341 98535 -13154 -58827 -771074
37381 37381948 390 -732 98071 -13698 -58142 -771058
37385 37385684 1196 -341 97680 -13878 -58378 -771027
37389 37389424 1220 341 97924 -13213 -58602 -770937
37392 37393160 1245 -219 97363 -13189 -58716 -771037
37396 37396912 463 -244 96948 -13204 -58170 -771024
37400 37401388 1635 -610 98242 -13699 -58848 -770983
37404 37405144 1049 -439 97998 -14005 -58929 -770944
37408 37408896 1147 -415 96777 -14269 -59127 -770858
37411 37412644 292 -854 96850 -14874 -58303 -771061
37415 37416380 854 -146 97582 -14766 -58095 -771076
37420 37420128 878 -415 97802 -14979 -57917 -771000
37423 37423860 1074 -341 98339 -15094 -57860 -771093
37427 37427600 439 122 96801 -14719 -57344 -771076
37431 37431324 1293 0 97607 -14402 -57617 -771096
37434 37434916 1147 24 98144 -14090 -57792 -771220
37446 37447488 903 -512 97460 -14336 -57409 -771409
37450 37451212 903 170 96606 -13792 -57373 -771474
37454 37454940 585 73 97436 -13448 -56878 -771530
37457 37458660 1367 -341 97338 -13538 -57373 -771557
37462 37462400 1049 -317 96655 -13655 -57607 -771485
37466 37466148 634 -512 97705 -14013 -57172 -771528
37469 37469872 1049 -634 97509 -14358 -57274 -771554
37473 37473628 1489 -390 97656 -14551 -57844 -771551
37476 37477364 1123 122 97509 -14031 -58069 -771594
37480 37481116 854 170 97656 -13627 -57934 -771443
37491 37492172 927 -170 97875 -13791 -57651 -771570
37495 37495908 634 390 97778 -13039 -57183 -771530
37498 37499636 610 -585 97607 -13501 -56815 -771702
37502 37503368 854 -292 97167 -13629 -56674 -771759
37507 37507104 903 -366 97265 -13765 -56577 -771738
37510 37510836 1293 -24 97607 -13499 -56964 -771618
37514 37514584 781 -24 97070 -13248 -56765 -771628
37517 37518312 927 -366 98022 -13433 -56695 -771538
37521 37522040 1196 -97 97387 -13224 -57052 -771558
37525 37525784 1123 -341 97631 -13437 -57224 -771651
37530 37531388 927 0 97656 -13095 -57051 -771837
37534 37534968 683 -341 97216 -13213 -56738 -771802
37537 37538688 1220 -219 97607 -13151 -57089 -771919
37541 37542444 878 -146 97143 -13090 -56966 -771995
37545 37546192 1635 -292 97290 -13226 -57776 -771905
37549 37549940 1464 -195 97045 -13221 -58404 -771907
37553 37553692 610 -244 97753 -13368 -57946 -771986
37557 37557424 1049 -390 96484 -13541 -57989 -772042
37560 37561168 1025 -366 97485 -13670 -57968 -772044
37564 37564904 1245 0 98144 -13400 -58271 -772073
37568 37569240 1025 -463 97924 -13800 -58281 -772014
37572 37572988 1513 -708 97973 -14320 -58907 -772066
37576 37576732 854 -195 97582 -14307 -58692 -772131
37579 37580476 878 -708 96948 -14791 -58496 -772115
37583 37584208 341 -146 97338 -14675 -57823 -772111
37586 37587936 1293 -146 96704 -14543 -58294 -772113
37591 37591696 1586 97 97875 -14208 -59010 -771981
37595 37595436 317 -195 97436 -14149 -58252 -771968
37598 37599180 976 -634 97802 -14595 -58181 -771993
37602 37602920 1147 -195 98144 -14644 -58398 -771995
37607 37607432 756 -244 97705 -14612 -58112 -771942
37610 37611164 561 -488 98315 -14906 -57621 -771919
37614 37614892 805 -244 97509 -14908 -57451 -771838
37617 37618628 537 -146 97753 -14790 -56927 -771968
37621 37622360 1269 146 97558 -14357 -57356 -771945
37625 37626112 927 -122 97778 -14158 -57278 -771896
37628 37629844 1464 -73 98095 -14131 -57806 -771830
37633 37633580 1025 -659 97973 -14517 -57896 -771758
37637 37637336 756 170 97680 -14016 -57594 -771746
37641 37641808 1245 48 98461 -13730 -57920 -771672
37645 37645560 1049 -219 97314 -13696 -58011 -771641
37648 37649312 1049 -317 97021 -13820 -58198 -771729
37652 37653060 854 -878 97998 -14540 -57979 -771718
37656 37656808 805 122 97509 -14132 -57730 -771587
37659 37660540 1098 -24 98022 -13955 -57739 -771778
37663 37664276 1196 24 97924 -13610 -58020 -771642
37667 37668008 1147 48 97167 -13352 -58158 -771634
37670 37671752 1318 219 97021 -12920 -58593 -771648
37675 37675496 878 -439 98120 -13215 -58459 -771528
37679 37679980 1196 -122 97534 -13094 -58659 -771695
37683 37683744 683 -488 97338 -13455 -58304 -771692
37687 37687472 1025 -585 96728 -13897 -58334 -771615
37690 37691228 1391 292 97582 -13382 -58741 -771629
37694 37694972 927 -268 96752 -13499 -58638 -771566
37698 37698708 1367 -512 97875 -13887 -59025 -771600
37701 37702460 683 -73 97509 -13670 -58617 -771663
37705 37706188 854 48 97094 -13343 -58484 -771779
37709 37709920 610 -610 96899 -13779 -58004 -771849
37712 37713664 732 122 98461 -13414 -57702 -771857
37718 37718148 683 366 97582 -12640 -57320 -771890
37721 37721864 805 48 96826 -12376 -57151 -771739
37725 37725604 781 -903 97827 -13186 -56958 -771768
37729 37729356 1635 48 96630 -12837 -57713 -771787
37732 37733108 1245 -341 97607 -13100 -58182 -771698
37736 37736848 659 170 98144 -12571 -57774 -771676
37740 37740572 561 -390 98144 -12869 -57341 -771655
37743 37744300 732 -97 97558 -12809 -56898 -771528
37747 37748016 1000 -561 97460 -13239 -56932 -771608
37750 37751764 561 -268 97900 -13246 -56456 -771542
37764 37764200 1049 -585 98095 -13429 -56435 -771608
37767 37767944 1513 -415 97021 -13602 -57123 -771597
37771 37771684 1025 24 98168 -13300 -57132 -771617
37775 37775424 1367 -537 97143 -13707 -57611 -771660
37778 37779172 976 -341 97338 -13912 -57578 -771710
37782 37782896 805 -634 97680 -14369 -57371 -771758
37786 37786644 1245 -341 97436 -14398 -57674 -771818
37789 37790380 1342 -122 96679 -14289 -58147 -771973
37793 37794136 1440 -610 98071 -14693 -58617 -771878
37796 37797872 1318 -48 98071 -14429 -59084 -771884
37808 37809044 854 -48 97143 -14213 -58854 -771523
37812 37812788 1342 -537 97607 -14481 -59313 -771477
37816 37816532 781 -683 97143 -14961 -59079 -771473
37819 37820268 561 -219 97607 -15032 -58431 -771396
37823 37824008 756 -317 96997 -15119 -58165 -771452
37827 37827736 488 -463 97338 -15335 -57526 -771330
37830 37831452 561 -366 97363 -15506 -57048 -771295
37834 37835184 976 -292 97485 -15576 -57023 -771342
37838 37838920 659 -268 97827 -15587 -56587 -771284
37841 37842660 610 -341 97827 -15782 -56236 -771127
37848 37848852 1000 -488 97802 -15964 -56450 -771227
37852 37852600 756 -97 98339 -15784 -56221 -771214
