##########
# Recording 101060 start
# Format: >Millis Micros AccelX AccelY AccelZ RotX RotY RotZ<
# All multiplied x100000
##########
101072 101072916 1293 -683 96923 -48558 -32206 -478439
101075 101076704 756 -878 97509 -48659 -32634 -478409
101080 101080492 1025 -463 98217 -48341 -33072 -478428
101084 101084284 -122 -927 96874 -48571 -32179 -478484
101087 101088072 512 -708 97753 -48443 -32043 -478411
101091 101091836 659 -805 97582 -48525 -32116 -478471
101095 101095604 634 -634 97558 -48310 -32279 -478508
101102 101103096 903 -1000 97216 -48537 -32777 -478339
101106 101106880 512 -1611 97656 -49423 -32832 -478357
101109 101110660 732 -708 97998 -49282 -33077 -478285
101113 101114424 97 -634 97778 -49108 -32599 -478334
101117 101118184 415 -439 97314 -48519 -32474 -478329
101121 101121932 585 -537 97265 -48189 -32434 -478342
101125 101125688 463 -952 97241 -48283 -32484 -478300
101129 101129452 1098 -1025 97167 -48519 -33119 -478387
101132 101133252 268 -830 96533 -48500 -32808 -478418
101136 101137020 634 -610 97949 -48138 -32933 -478456
101142 101142644 390 -805 97241 -48060 -32686 -478327
101145 101146416 195 -1171 97509 -48352 -32187 -478309
101149 101150200 878 -683 97534 -48171 -32546 -478287
101153 101153976 537 -952 97387 -48491 -32521 -478333
101156 101157740 292 -585 96874 -48126 -32309 -478303
101160 101161504 1123 -195 98193 -47438 -33037 -478235
101165 101165288 -73 -732 97265 -47349 -32297 -478218
101168 101169060 732 -1660 97167 -48583 -32415 -478353
101172 101172832 512 -781 97998 -48562 -32340 -478445
101176 101177352 170 -1074 97778 -48840 -31740 -478574
101180 101181128 73 -952 97216 -49047 -31189 -478727
101184 101184888 756 -732 97167 -48900 -31415 -478773
101188 101188652 756 -878 96826 -49035 -31568 -478774
101191 101192428 830 -463 96704 -48689 -31899 -478787
101195 101196192 195 -732 97436 -48623 -31587 -478677
101199 101199952 512 -659 96899 -48481 -31595 -478563
101202 101203716 1123 -1367 96582 -49210 -32134 -478656
101207 101207512 585 -683 96801 -49068 -32160 -478665
101211 101211272 805 -805 97607 -49204 -32380 -478625
101215 101215796 195 -366 97216 -48766 -31824 -478595
101219 101219544 683 -927 96801 -48917 -31990 -478550
101222 101223316 292 -927 97460 -48876 -31811 -478551
101226 101227080 708 -683 96899 -48768 -32039 -478570
101230 101230844 341 -415 97753 -48348 -31846 -478598
101233 101234588 1074 -1293 97021 -48893 -32462 -478513
101237 101238392 708 -756 97143 -48923 -32585 -478544
101241 101242152 854 -1025 97827 -49133 -32919 -478512
101244 101245940 659 -903 97436 -49178 -33084 -478750
101250 101250464 1098 -488 98291 -48831 -33502 -478714
101254 101254232 170 -1489 97729 -49718 -32977 -478719
101257 101258008 878 -952 96484 -49845 -33280 -478671
101261 101261792 537 -708 96777 -49669 -33190 -478648
101265 101265560 1220 -1000 97656 -49802 -33987 -478644
101268 101269360 390 -488 97070 -49331 -33795 -478511
101272 101273108 561 -1074 97216 -49576 -33752 -478589
101276 101276888 634 -854 97485 -49635 -33812 -478544
101279 101280680 830 -1220 97827 -50079 -34128 -478490
101283 101284472 659 -708 96923 -49893 -34354 -478271
101288 101288988 219 -463 96850 -49438 -33908 -478195
101292 101292760 561 -634 97753 -48837 -34202 -478141
101296 101296520 15893 9008 88134 -36799 -55068 -478196
101300 101300312 6518 -219 88671 -36329 -62108 -478224
101303 101304076 1660 -3955 97509 -40261 -62190 -477981
101307 101307872 683 -2368 95532 -42266 -61732 -477821
101311 101311644 1928 -292 96874 -41773 -62826 -477661
101314 101315428 512 -878 97753 -42071 -62281 -477534
101318 101319192 0 -903 96142 -42357 -61060 -477425
101322 101323556 1074 -463 96997 -42036 -61290 -477193
101326 101327340 195 -1049 96362 -42485 -60392 -477111
101330 101331120 122 -366 96630 -42187 -59381 -477066
101334 101334876 585 -1049 98217 -42653 -58948 -476991
101338 101338660 -341 -97 97705 -42048 -57448 -476973
101342 101342416 170 -610 98120 -41925 -56497 -476955
101345 101346180 268 -1049 97167 -42153 -55860 -476919
101349 101349960 48 -903 97509 -42439 -54797 -476822
101353 101353732 1000 -708 97753 -42435 -54822 -476924
101366 101367124 97 -781 97412 -42725 -53753 -476827
101369 101370888 659 -952 97656 -43002 -53566 -476726
101373 101374656 439 -854 97045 -43288 -52957 -476628
101378 101378412 1171 -854 97485 -43491 -53318 -476578
101382 101382200 781 -830 98217 -43523 -53111 -476506
101385 101385980 1196 -952 97827 -43841 -53573 -476341
101389 101389764 -366 -805 97094 -43715 -52138 -476351
101393 101393536 756 -195 97021 -43095 -52045 -476283
101396 101397304 830 -1049 96997 -43379 -51844 -476156
101400 101401084 683 -366 98120 -42887 -51662 -476046
101407 101408556 781 -1098 96850 -43154 -51872 -475909
101411 101412336 195 -878 97607 -43387 -51043 -475872
101415 101416112 903 -1953 98217 -43825 -51361 -475772
101419 101419896 2490 -1586 97021 -44638 -52851 -475598
101423 101423688 -561 -1782 96411 -45721 -51255 -475495
101427 101427472 -195 -2026 97924 -47138 -50139 -475353
101430 101431252 1464 -1245 96533 -47645 -50871 -475348
101434 101435048 537 -708 96679 -47438 -50421 -475422
101438 101438804 219 -976 97412 -47594 -49763 -475367
101444 101445044 -292 -1171 98461 -47956 -48483 -475483
101448 101448836 610 -903 97558 -47942 -48322 -475401
101451 101452600 195 -488 96704 -47564 -47572 -475426
101455 101456364 854 -878 97851 -47630 -47628 -475376
101459 101460156 122 -195 98217 -46853 -46850 -475395
101463 101463924 683 -952 97509 -46989 -46779 -475420
101467 101467692 97 -952 98852 -46951 -46181 -475427
101471 101471456 1098 -488 97631 -46618 -46581 -475198
101474 101475224 1245 -146 98095 -45870 -47118 -475199
101479 101479764 683 -610 97778 -45580 -47052 -475096
101482 101483520 610 -97 97973 -44761 -46755 -475124
101486 101487284 1098 -1293 97265 -45488 -47200 -475045
101490 101491088 537 -756 98046 -45406 -46922 -474940
101494 101494852 903 -830 96777 -45446 -47010 -474923
101497 101498632 732 -830 97582 -45400 -46987 -474856
101501 101502396 219 -610 97656 -45389 -46398 -474704
101506 101506156 1367 -952 97192 -45614 -47169 -474696
101509 101509952 512 -659 97143 -45523 -46683 -474641
101513 101513704 830 -659 97143 -45441 -46695 -474642
101517 101518220 366 -610 97851 -45260 -46055 -474649
101521 101521968 463 -195 97021 -44623 -45763 -474662
101525 101525728 585 -878 96948 -44726 -45426 -474566
101528 101529484 390 -341 96215 -44384 -44836 -474677
101532 101533220 317 -756 96289 -44375 -44403 -474781
101536 101536988 1513 -537 97338 -44107 -45160 -474791
101539 101540748 -317 -1049 97265 -44488 -43856 -474907
101543 101544528 878 -537 97338 -44158 -44174 -474832
101548 101548296 1074 -805 97973 -44223 -44500 -474841
101552 101552832 317 -561 97412 -44068 -44054 -474736
101556 101556588 1074 -708 98583 -44029 -44419 -474777
101560 101560368 366 -463 96142 -43738 -44153 -474773
101563 101564112 878 -854 97900 -43895 -44176 -474780
101567 101567884 1147 -732 98071 -43933 -44595 -474822
101571 101571664 268 -927 96679 -44043 -43983 -474671
101574 101575436 732 -732 97900 -43955 -43844 -474696
101578 101579200 219 -512 96704 -43730 -43283 -474674
101582 101582956 708 -1025 97338 -44055 -43199 -474560
101585 101586740 903 -195 97582 -43363 -43393 -474408
101591 101591264 122 -1513 97363 -44309 -42695 -474241
101594 101595040 439 -805 96655 -44266 -42239 -474266
101598 101598800 366 -1416 97338 -45073 -41721 -474114
101602 101602560 878 -830 97192 -45120 -41808 -474183
101605 101606324 1293 -976 97631 -45497 -42481 -474154
101609 101610112 1147 -1318 97119 -45995 -43042 -474173
101613 101613908 97 -537 97143 -45598 -42150 -474132
101616 101617652 659 -854 96752 -45735 -42081 -474146
101620 101621436 488 -488 98364 -45487 -41704 -474251
101625 101625916 0 -732 97167 -45329 -40890 -474300
101628 101629528 1269 -1293 97143 -46070 -41424 -474461
101633 101633324 512 -585 97265 -45786 -41273 -474521
101636 101637068 341 -1123 98046 -46179 -40683 -474400
101640 101640840 1025 -708 96630 -46109 -41088 -474364
101644 101644624 439 -854 97607 -46141 -40838 -474282
101647 101648380 366 -195 97558 -45530 -40485 -474264
101651 101652140 24 -1245 98266 -46073 -39772 -474289
101655 101655912 610 -48 97290 -45219 -39630 -474285
101659 101659676 659 -585 96435 -45040 -39596 -474281
101671 101672512 48 244 96728 -43730 -38370 -474155
101676 101676256 146 -781 98413 -43807 -37735 -474170
101679 101680024 97 -708 97534 -43830 -36942 -474146
101683 101683780 463 -415 97436 -43485 -36728 -473994
101687 101687536 390 -268 96459 -42963 -36513 -473921
101690 101691284 512 -830 97656 -43079 -36447 -473928
101694 101695048 732 -1147 97070 -43514 -36484 -473971
101698 101698828 341 -585 96704 -43353 -36143 -473922
101701 101702576 -195 -1147 97753 -43821 -35242 -474014
101709 101710100 341 -878 96899 -43840 -34915 -473812
101712 101713848 756 -585 97534 -43827 -35145 -473916
101716 101717604 1025 -659 97607 -43704 -35806 -473864
101721 101721388 1123 -708 97119 -43707 -36301 -473828
101724 101725160 390 -1000 97387 -43922 -36145 -473938
101728 101728940 390 -830 97436 -44064 -35896 -473988
101732 101732700 512 -1098 97045 -44436 -35750 -473961
101736 101736480 561 -1196 97338 -44957 -35644 -474021
101739 101740260 1000 -1000 97192 -45281 -36246 -473802
101746 101746724 659 -683 97705 -45064 -36352 -473629
101749 101750484 659 -439 97607 -44788 -36443 -473556
101753 101754248 659 -610 98437 -44559 -36493 -473534
101757 101758020 781 -903 97387 -44702 -36661 -473480
101761 101761804 781 -1196 98364 -45347 -36811 -473487
101765 101765592 610 -708 98388 -45266 -36721 -473528
101769 101769364 341 -1147 97534 -45670 -36349 -473469
101772 101773132 830 -1367 97119 -46341 -36706 -473531
101776 101776916 781 -146 96606 -45632 -36824 -473519
101780 101780688 -195 -756 96655 -45707 -35984 -473547
101784 101785204 366 -952 97314 -45894 -35796 -473693
101788 101788960 830 -1367 98437 -46695 -36053 -473753
101791 101792736 561 -1025 97021 -46973 -36040 -473992
101795 101796524 -97 -1342 97558 -47703 -35171 -474066
101799 101800312 390 -830 96948 -47749 -34909 -474112
101804 101804080 268 -878 97900 -47837 -34590 -474177
101807 101807848 488 97 97680 -46762 -34456 -474159
101811 101811604 537 -1293 98095 -47357 -34347 -474132
101815 101815384 537 -292 96533 -46746 -34277 -474279
101819 101819896 195 -903 96899 -46869 -33820 -474170
101823 101823672 1220 -903 97094 -47026 -34573 -474193
101826 101827460 1220 -659 96435 -46888 -35328 -474096
101830 101831244 463 -1171 97656 -47369 -35193 -474109
101834 101835024 415 -732 97460 -47311 -34943 -474142
101837 101838772 756 -781 97021 -47211 -35111 -474136
101841 101842544 830 -659 97534 -47169 -35465 -474082
101846 101846312 781 -585 97119 -46841 -35692 -474150
101849 101850072 195 -781 97851 -46910 -35216 -474114
101853 101853848 463 -854 97436 -46871 -35096 -474066
101858 101858356 317 -634 97387 -46730 -34644 -474122
101861 101862104 512 -854 97265 -46840 -34493 -474049
101865 101865868 830 -976 97558 -47132 -34888 -473880
101869 101869636 366 -927 98242 -47295 -34579 -473945
101872 101873396 708 -1074 97119 -47547 -34737 -473964
101876 101877180 317 -1098 98413 -47778 -34365 -473928
101880 101880952 927 -708 98364 -47612 -34702 -473946
101883 101884712 512 -878 97534 -47832 -34781 -473990
101888 101888476 659 -854 97924 -47913 -34811 -474021
101892 101892992 683 -878 97973 -48020 -34894 -474089
101896 101896764 708 -952 97998 -47947 -35062 -474132
101900 101900544 683 -292 97265 -47362 -35164 -474078
101903 101904300 1147 -708 97900 -47227 -35896 -474158
101907 101908084 1000 -634 97607 -46964 -36297 -474146
101911 101911860 756 -1098 97631 -47270 -36394 -474270
101914 101915640 -146 -1293 97143 -47821 -35446 -474253
101918 101919440 415 -1196 97607 -48354 -35167 -474290
101922 101923212 268 -781 97460 -48253 -34862 -474286
101926 101926976 366 -903 96923 -48317 -34609 -474250
101931 101931488 903 -952 97387 -48466 -35058 -474319
101935 101935264 488 -952 96289 -48590 -34958 -474292
101938 101939032 -146 -1342 96850 -49233 -34041 -474214
101942 101942828 1074 -683 97338 -48935 -34621 -474123
101946 101946600 585 -878 97729 -49002 -34618 -474073
101949 101950376 610 -1123 97387 -49411 -34569 -474135
101953 101954160 1513 -1293 96752 -49992 -35709 -474202
101957 101957960 439 -122 98266 -49051 -35433 -474102
101960 101961708 244 -463 97534 -48517 -34982 -474107
101974 101974416 488 -585 97021 -48284 -35160 -474209
101978 101978160 1000 -732 97460 -48171 -35609 -474218
101981 101981944 219 -732 97973 -48054 -35276 -474195
101985 101985704 415 -732 97119 -47856 -35062 -474127
101989 101989460 854 -976 97534 -48052 -35385 -474031
101992 101993248 439 -659 97851 -47828 -35248 -474129
101996 101997008 805 -1049 96874 -48195 -35512 -474130
102000 102000796 903 -537 97656 -47859 -35689 -474080
102003 102004564 390 -952 96874 -48161 -35452 -474154
102011 102012056 488 -903 97998 -48383 -35235 -474166
102014 102015812 268 -1074 96679 -48683 -34949 -474144
102019 102019596 97 -805 97558 -48608 -34412 -474131
102023 102023364 1000 -292 97436 -47986 -34993 -474062
102026 102027144 341 -878 97631 -47982 -34775 -474069
102030 102030908 585 -683 98535 -47777 -34776 -474039
102034 102034668 878 -781 98291 -47697 -35102 -474081
102037 102038440 561 -634 97021 -47555 -35102 -474015
102041 102042200 830 -610 97241 -47151 -35244 -473881
102045 102045968 927 -1171 96435 -47579 -35683 -473904
102050 102051448 1000 -634 97436 -47341 -36124 -474061
102054 102055232 73 -830 97167 -47312 -35392 -474057
102057 102058984 683 -1000 96728 -47684 -35467 -473997
102062 102062772 439 -1245 96826 -48122 -35400 -473948
102066 102066548 952 -976 97924 -48376 -35803 -473857
102070 102070324 854 -830 97119 -48330 -36093 -473917
102073 102074104 366 -830 97192 -48446 -35842 -474016
102077 102077860 781 -585 97753 -48183 -36012 -473952
102081 102081628 512 -805 96533 -48235 -35871 -473953
102085 102086152 830 -1391 96459 -48955 -36274 -473984
102089 102089936 634 -610 97338 -48593 -36145 -474058
102092 102093684 537 -1245 96874 -49143 -36084 -474168
102096 102097460 488 -463 97631 -48713 -35998 -474151
102100 102101208 732 -1123 96435 -48991 -36127 -473986
102104 102104984 1074 -952 97021 -49101 -36569 -474073
102108 102108772 805 -976 97192 -49308 -36742 -474012
102112 102112548 683 -585 97192 -49099 -36860 -474045
102115 102116308 585 -1025 97436 -49307 -36606 -473978
102119 102120092 1245 -976 98339 -49478 -37315 -473979
102124 102124636 1391 -732 97094 -49325 -38184 -473833
102127 102128412 854 -952 97631 -49535 -38552 -473773
102131 102132192 756 -195 97949 -48810 -38596 -473723
102135 102135956 439 -683 98339 -48663 -38401 -473618
102138 102139708 585 -488 96850 -48329 -38228 -473570
102142 102143460 537 -903 97607 -48395 -38055 -473412
102147 102147224 1196 -732 95825 -48336 -38731 -473449
102150 102151008 390 -903 97460 -48361 -38412 -473480
102154 102154776 732 -903 96582 -48480 -38434 -473518
102158 102159288 73 -341 97631 -48111 -37695 -473475
102162 102163036 732 -146 96655 -47276 -37836 -473531
102166 102166796 415 -439 96752 -46862 -37604 -473513
102169 102170548 463 -878 97582 -46886 -37352 -473551
102173 102174308 1098 -756 96850 -46864 -37842 -473545
102177 102178096 415 -488 96752 -46479 -37529 -473536
102180 102181844 292 -1000 97143 -46732 -37145 -473562
102184 102185628 878 -708 97851 -46681 -37353 -473593
102189 102189392 1123 -1049 97509 -47027 -37829 -473516
102193 102193908 610 -1147 97875 -47509 -37777 -473437
102197 102197700 708 -1000 97802 -47823 -37885 -473401
102201 102201484 585 -878 96362 -47971 -37826 -473328
102204 102205256 878 -756 97924 -48019 -38017 -473274
102208 102209020 561 -1000 96704 -48358 -37938 -473219
102212 102212812 1196 -1000 97338 -48615 -38598 -473138
102215 102216612 830 -952 96166 -48648 -38699 -473218
102219 102220376 463 -415 97045 -48119 -38487 -473151
102223 102224128 1171 -1171 98022 -48554 -39053 -473243
102226 102227924 1098 -830 96655 -48599 -39780 -473038
102232 102232468 585 -952 97314 -48720 -39641 -473033
102236 102236244 195 -878 97314 -48778 -38991 -473111
102239 102240024 268 -805 97460 -48739 -38566 -473081
102243 102243804 585 -805 96801 -48733 -38481 -473132
102247 102247580 659 -903 97119 -48870 -38478 -473114
102250 102251360 585 -781 97558 -48944 -38358 -473066
102254 102255136 561 -512 97167 -48521 -38304 -473067
102258 102258892 317 -488 98022 -48069 -37956 -473035
102261 102262632 878 -708 97363 -47913 -38085 -473097
102276 102276496 341 -561 97729 -47640 -37692 -472992
102280 102280244 1025 -1123 96972 -48123 -38174 -473039
102283 102284044 634 -146 96826 -47252 -38051 -472893
102287 102287808 634 -756 96728 -47331 -38071 -472829
102291 102291580 341 -1025 96801 -47684 -37712 -472853
102294 102295352 537 -805 96655 -47735 -37490 -472707
102298 102299116 341 -878 97851 -47762 -37142 -472671
102302 102302880 634 -756 96972 -47751 -37080 -472699
102305 102306644 341 -244 97656 -46953 -36616 -472657
102309 102310384 463 -1464 97216 -47670 -36370 -472525
102317 102317880 341 -1049 97216 -48089 -36027 -472477
102321 102321652 73 -830 97802 -48151 -35301 -472427
102325 102325420 146 -610 96850 -47902 -34833 -472483
102328 102329188 781 -854 95605 -48131 -35171 -472520
102332 102332968 317 -976 95996 -48330 -34831 -472551
102336 102336736 805 -1684 96801 -49386 -35108 -472529
102339 102340524 512 -878 96826 -49440 -35022 -472639
102343 102344296 439 -854 97582 -49474 -34912 -472628
102347 102348068 170 -610 96997 -49162 -34368 -472528
102352 102353692 683 -1025 98364 -49313 -34527 -472501
102356 102357484 561 -903 98168 -49425 -34411 -472624
102361 102361248 1391 -952 97558 -49453 -35363 -472634
102364 102365028 219 -585 97558 -49046 -34899 -472659
102368 102368796 756 -952 97167 -49301 -35069 -472655
102372 102372556 976 -903 97607 -49400 -35525 -472641
102375 102376332 585 -390 97070 -48928 -35377 -472648
102379 102380088 341 -1171 96215 -49443 -35205 -472624
102383 102383856 390 -952 98242 -49620 -34860 -472501
102386 102387608 952 -927 97387 -49750 -35298 -472459
102391 102392136 952 -805 98071 -49692 -35678 -472472
102395 102395920 830 -537 97143 -49405 -35932 -472422
102398 102399684 830 -805 96679 -49479 -36387 -472446
102403 102403460 634 -561 98217 -49191 -36376 -472451
102407 102407228 244 -1049 96777 -49424 -35872 -472415
102410 102411008 1000 -781 97265 -49286 -36301 -472513
102414 102414800 0 -561 97827 -49067 -35487 -472496
102417 102418396 24 -1074 96752 -49440 -34799 -472515
102421 102422172 708 -463 96459 -48980 -34840 -472515
102426 102426676 732 -805 96948 -48901 -34910 -472546
102429 102430440 -415 -390 97387 -48378 -33744 -472455
102433 102434208 561 -854 97534 -48384 -33753 -472451
102437 102437980 -97 -903 97827 -48409 -33114 -472328
102440 102441748 561 -927 96215 -48562 -33094 -472421
102445 102445532 903 -732 96850 -48455 -33517 -472481
102449 102449304 341 -439 97387 -48026 -33331 -472509
102452 102453048 292 -927 96777 -48262 -32937 -472491
102456 102456812 24 -781 97387 -48311 -32233 -472483
102460 102460572 292 -1171 98388 -48693 -31913 -472575
102464 102465100 781 -830 97412 -48638 -32287 -472583
102468 102468880 219 -73 97729 -47775 -31838 -472552
102471 102472632 73 -634 98217 -47520 -31380 -472448
102475 102476388 -244 -1049 97094 -47786 -30515 -472321
102479 102480176 805 -219 97021 -47011 -30795 -472285
102482 102483944 659 -903 96606 -47215 -30964 -472304
102487 102487720 1049 -1000 96655 -47435 -31526 -472286
102491 102491524 1220 -854 97241 -47589 -32399 -472227
102495 102495316 537 -781 97753 -47554 -32441 -472177
102499 102499844 1440 -805 97705 -47514 -33311 -472148
102503 102503628 878 -537 97070 -47298 -33702 -472121
102506 102507388 219 -1196 98242 -47815 -33216 -472292
102510 102511164 561 -756 97241 -47716 -33264 -472329
102514 102514924 756 -1049 98071 -47918 -33566 -472330
102517 102518704 683 -976 97290 -48087 -33630 -472331
102521 102522480 561 -830 96142 -48105 -33510 -472337
102525 102526252 195 -512 97460 -47807 -33091 -472387
102529 102530004 1318 -805 97119 -47707 -33993 -472284
102534 102534544 756 -1391 96826 -48336 -34218 -472309
102538 102538324 781 -537 96533 -48031 -34404 -472305
102541 102542096 390 -244 96801 -47337 -34295 -472354
102545 102545856 463 -781 96874 -47302 -34075 -472332
102549 102549624 683 -805 97802 -47274 -34192 -472387
102552 102553400 781 -903 97241 -47455 -34479 -472358
102556 102557176 732 -1074 97387 -47829 -34591 -472386
102560 102560944 732 -878 97045 -47925 -34721 -472391
102563 102564716 488 -903 97045 -47993 -34642 -472336
102567 102568480 610 -1098 98193 -48317 -34635 -472223
102581 102582244 -146 -659 97680 -47800 -33216 -471789
102585 102586008 463 -1000 97338 -48060 -33190 -471820
102589 102589784 830 -1025 97314 -48195 -33475 -471839
102593 102593568 1171 -805 96801 -48155 -34181 -471848
102596 102597360 1245 -854 97045 -48196 -35000 -471794
102600 102601156 878 -1049 97265 -48524 -35302 -471804
102604 102604932 488 -805 97143 -48546 -35272 -471786
102607 102608696 756 -830 97119 -48544 -35271 -471616
102611 102612464 390 -756 97216 -48425 -34946 -471720
102619 102619940 634 -659 97680 -48264 -35258 -472063
102623 102623708 195 -732 97729 -48181 -34730 -471995
102627 102627472 439 -463 97607 -47773 -34482 -471991
102630 102631224 463 -854 97143 -47863 -34414 -471906
102634 102634988 585 -683 96874 -47706 -34380 -471916
102638 102638756 659 -830 97607 -47719 -34505 -471793
102641 102642536 415 -1025 96874 -48045 -34344 -471824
102645 102646316 927 -610 97216 -47925 -34831 -471776
102649 102650084 537 -903 97680 -47974 -34798 -471822
102652 102653836 1098 -463 97485 -47591 -35345 -471571
102659 102660080 1049 -1049 96606 -47789 -35735 -471572
102663 102663876 292 -830 97387 -47739 -35242 -471378
102667 102667636 830 -561 96874 -47419 -35517 -471346
102671 102671404 805 -659 97705 -47169 -35709 -471347
102674 102675176 219 -927 97021 -47436 -35299 -471274
102678 102678940 463 -952 97216 -47782 -35056 -471243
102682 102682696 683 -488 97290 -47407 -35207 -471229
102685 102686464 415 -537 97192 -47195 -34864 -471248
102689 102690216 610 -683 97241 -47031 -34848 -471221
102693 102694724 244 -341 97290 -46525 -34220 -471222
102697 102698472 634 -976 96606 -46707 -34273 -471235
102702 102702244 292 -1318 96630 -47337 -33906 -471290
102705 102706020 195 -634 97485 -47150 -33382 -471224
102709 102709792 390 -878 97167 -47281 -33209 -471266
102713 102713560 732 -1220 96972 -47698 -33394 -471234
102716 102717336 708 -512 96874 -47364 -33603 -471290
102720 102721092 756 -952 97973 -47532 -33878 -471242
102724 102724868 439 -805 96606 -47646 -33724 -471260
102727 102728636 976 -659 98022 -47502 -34140 -471292
102732 102733152 292 -292 97973 -46902 -33797 -471219
102736 102736912 756 -1000 96777 -47092 -33988 -471151
102739 102740700 341 -1147 97167 -47610 -33849 -471228
102744 102744468 341 -805 98046 -47619 -33682 -471279
102748 102748236 781 -830 96972 -47716 -34068 -471174
102751 102752016 317 -878 97265 -47907 -33650 -471138
102755 102755784 634 -537 97143 -47624 -33606 -471093
102759 102759544 1074 -830 98681 -47627 -34112 -471093
102762 102763340 756 -927 97924 -47894 -34294 -471155
102767 102767856 610 -341 97436 -47310 -34377 -471174
102770 102771604 488 -854 97778 -47396 -34246 -471333
102774 102775368 952 -903 97167 -47629 -34813 -471401
102778 102779136 463 -463 96728 -47147 -34587 -471448
102781 102782872 1000 -903 97314 -47367 -35040 -471540
102786 102786656 952 -805 97021 -47474 -35413 -471602
102790 102790428 439 -561 97705 -47153 -35231 -471547
102793 102794176 1098 -610 97241 -46979 -35746 -471432
102797 102797956 439 -903 97412 -47134 -35569 -471622
102802 102802472 341 -976 97265 -47349 -35150 -471800
102805 102806224 781 -610 97778 -47077 -35293 -471825
102809 102809992 219 -927 97265 -47239 -34763 -471789
102813 102813764 463 -1123 97436 -47652 -34620 -471803
102816 102817548 390 -683 97900 -47627 -34400 -471773
102820 102821312 537 -1049 97436 -47843 -34377 -471806
102824 102825084 732 -585 98754 -47406 -34542 -471879
102828 102828848 708 -683 97558 -47352 -34704 -471837
102832 102832612 -24 -634 97973 -47185 -33992 -471737
102836 102836376 683 -903 96777 -47366 -34092 -471715
102840 102840900 292 -854 97436 -47597 -33953 -471708
102844 102844668 903 -781 97265 -47576 -34390 -471768
102847 102848440 683 -805 97827 -47636 -34577 -471696
102851 102852216 610 -805 96997 -47607 -34729 -471672
102855 102855996 341 -1586 97680 -48450 -34446 -471613
102858 102859768 659 -903 97241 -48623 -34572 -471687
102862 102863548 732 -439 97460 -48235 -34673 -471638
102866 102867300 244 -878 97241 -48253 -34328 -471653
102871 102871060 219 -317 97167 -47659 -33934 -471745
102883 102884228 97 -952 97607 -48005 -33107 -471846
102887 102887988 1245 -805 96630 -47984 -34127 -471957
102891 102891780 854 -463 98120 -47567 -34454 -471994
102894 102895536 561 -1464 97924 -48379 -34359 -472043
102898 102899304 927 -1074 96582 -48730 -34656 -472136
102902 102903088 219 -756 96704 -48694 -34301 -472136
102905 102906852 1098 -1000 97094 -48961 -34936 -472077
102909 102910656 537 -1074 97290 -49324 -35046 -472101
102914 102914428 170 -878 98144 -49477 -34425 -472129
102918 102918188 634 -561 97802 -49182 -34330 -472088
102925 102925676 390 -341 97338 -48918 -34192 -471897
102929 102929432 708 -1293 97192 -49471 -34376 -471847
102932 102933216 439 -708 97753 -49355 -34207 -471750
102936 102936972 341 -952 97534 -49528 -33904 -471668
102940 102940736 854 -781 97216 -49428 -34159 -471715
102943 102944512 512 -1269 97314 -49954 -34202 -471746
102947 102948292 1318 -952 96679 -50161 -35047 -471733
102951 102952080 366 -488 97265 -49703 -34766 -471701
102955 102955828 756 -561 97534 -49416 -35016 -471763
102962 102962252 170 -341 97949 -48731 -34519 -471846
102965 102966008 1049 -976 96923 -49051 -35103 -472049
102969 102969784 219 -708 97241 -48995 -34774 -472022
102973 102973544 781 -830 97119 -49036 -35011 -472031
102976 102977332 463 -927 97045 -49057 -34868 -472044
102980 102981092 1000 -1391 96826 -49755 -35357 -472118
102984 102984892 854 -415 96533 -49236 -35769 -472077
102987 102988660 854 -1245 97460 -49699 -36127 -472121
102991 102992452 781 -927 97460 -49762 -36374 -472164
102995 102996228 -24 -1074 98071 -50047 -35681 -472098
103000 103000748 708 -708 97851 -49788 -35702 -472114
103004 103004508 708 -976 97167 -49945 -35861 -472073
103008 103008284 805 -1220 97802 -50364 -36189 -472087
103011 103012072 634 -1074 98193 -50594 -36209 -472039
103015 103015864 683 -805 97338 -50590 -36237 -472104
103019 103019636 1147 -1318 97802 -51142 -36796 -472196
103022 103023436 439 -1318 96874 -51848 -36631 -472135
103026 103027212 659 -366 97460 -51225 -36680 -472099
103030 103030984 439 -537 97338 -50834 -36484 -472182
103034 103035488 659 -610 97729 -50580 -36411 -472061
103038 103039256 585 -1049 96728 -50784 -36296 -472092
103042 103043032 854 73 96826 -49731 -36668 -472038
103046 103046784 1196 -512 97241 -49276 -37323 -471984
103050 103050556 854 -854 97265 -49348 -37567 -472021
103053 103054328 634 -1220 97705 -49839 -37607 -471976
103057 103058124 634 -927 97436 -49935 -37569 -472031
103061 103061896 1147 -927 96728 -50054 -38170 -472078
103065 103065696 732 -537 97412 -49722 -38306 -472174
103069 103070208 390 -927 97851 -49840 -38048 -472309
103073 103073968 439 -903 97460 -49925 -37873 -472342
103076 103077736 537 -708 96630 -49564 -37600 -472214
103080 103081496 317 -805 97167 -49405 -37087 -472258
103085 103085256 219 -830 97241 -49428 -36544 -472258
103088 103089024 219 -854 98413 -49292 -36096 -472283
103092 103092796 610 -805 97070 -49271 -36157 -472266
103096 103096572 1293 -219 97631 -48581 -36905 -472284
103099 103100348 146 -1147 97045 -49008 -36307 -472175
103103 103104132 781 -634 97192 -48652 -36648 -472048
103108 103108640 732 -610 97265 -48412 -36799 -471938
103111 103112408 292 -292 97216 -47862 -36363 -471872
103115 103116164 439 -439 96069 -47493 -36055 -471831
103119 103119908 463 -634 97363 -47355 -35859 -471827
103122 103123664 170 -732 97680 -47389 -35309 -471813
103127 103127424 97 -805 97558 -47326 -34742 -471850
103131 103131204 -73 -927 97485 -47413 -33981 -471869
103134 103134984 659 -1000 97998 -47732 -34081 -471857
103138 103138772 878 -463 97924 -47192 -34479 -471867
103142 103143272 512 -805 98144 -47220 -34427 -471837
103146 103147044 756 -634 97753 -47133 -34601 -471806
103150 103150800 781 -415 97900 -46687 -34821 -471765
103153 103154568 1464 -512 97412 -46358 -35808 -471869
103157 103158336 708 73 96728 -45280 -35940 -471955
103161 103162084 1171 24 97290 -44409 -36617 -472038
103164 103165840 195 -878 97607 -44436 -36147 -472016
103169 103169616 170 -805 97119 -44463 -35707 -471999
103173 103173384 -24 -1000 97656 -44732 -34840 -472004
103176 103177160 732 -878 97021 -44961 -35005 -472005
103189 103190280 732 -756 97460 -45210 -35195 -472284
103193 103194036 781 -1196 97143 -45763 -35406 -472184
103197 103197824 878 -659 96386 -45673 -35722 -472134
103200 103201592 634 -219 97827 -44989 -35718 -472208
103204 103205356 561 -1464 96655 -45782 -35587 -472204
103208 103209128 708 -854 97485 -45783 -35734 -472095
103212 103212900 585 -659 97778 -45516 -35679 -471809
103216 103216664 439 -976 97827 -45827 -35410 -471814
103220 103220424 976 -878 96752 -45979 -35847 -471714
103227 103227920 463 -610 96362 -45768 -35886 -471726
103231 103231680 903 -634 97265 -45655 -36275 -471680
103234 103235452 390 -1147 97802 -46118 -35932 -471657
103238 103239228 463 -170 97851 -45499 -35795 -471749
103242 103242980 732 -732 97265 -45507 -35882 -471649
103245 103246732 781 -1025 97338 -45824 -36057 -471674
103249 103250520 317 -781 96289 -45797 -35662 -471693
103254 103254284 24 -756 98291 -45789 -35016 -471639
103257 103258032 390 -1074 97045 -46102 -34744 -471664
103261 103261808 488 -976 96533 -46227 -34608 -471689
103266 103267256 292 -781 96997 -46422 -34280 -471659
103270 103271032 -97 -610 97460 -46326 -33453 -471800
103274 103274788 585 -878 97241 -46527 -33485 -471874
103277 103278560 415 -976 97802 -46646 -33376 -471777
103281 103282328 317 -561 97900 -46217 -33161 -471790
103285 103286076 463 -1000 97924 -46591 -32984 -471680
103288 103289844 0 -659 97558 -46381 -32333 -471687
103292 103293464 708 -854 97338 -46375 -32567 -471614
103297 103297240 244 -1635 98095 -47476 -32190 -471684
103301 103301764 48 -830 97290 -47439 -31457 -471402
103305 103305532 976 -585 98022 -47159 -32035 -471503
103308 103309292 585 -1269 97753 -47607 -32114 -471472
103312 103313076 366 -73 97094 -46761 -31704 -471351
103316 103316824 732 -732 96972 -46647 -31892 -471392
103319 103320572 463 -195 97192 -46049 -31723 -471379
103323 103324336 292 -1318 98364 -46737 -31271 -471294
103327 103328116 439 -1416 97900 -47461 -31108 -471327
103331 103331892 805 -830 97119 -47515 -31493 -471364
103334 103335672 708 -97 97949 -46663 -31622 -471395
103340 103340192 659 -1196 97119 -47195 -31696 -471381
103343 103343976 48 -439 97192 -46801 -31171 -471363
103347 103347744 585 -1049 97021 -47178 -31174 -471313
103351 103351524 -219 -805 98193 -47185 -30337 -471282
103354 103355304 415 -390 97094 -46734 -30061 -471325
103358 103359056 1147 -1098 96728 -47138 -30888 -471326
103362 103362872 244 -1147 97338 -47489 -30618 -471198
103365 103366644 634 -244 96850 -46740 -30763 -471139
103369 103370412 708 -1147 97460 -47240 -30923 -471170
103374 103374940 1000 -537 96777 -47010 -31571 -471073
103377 103378724 1049 -1171 97387 -47534 -32207 -471123
103382 103382524 219 -366 97387 -47046 -31848 -470971
103386 103386276 708 -854 97509 -47066 -32081 -470944
103389 103390052 292 -1000 97729 -47306 -31636 -470951
103393 103393836 366 -1098 97436 -47660 -31443 -470994
103397 103397616 683 -903 97412 -47811 -31706 -471127
103400 103401380 830 -244 98315 -47236 -31970 -471153
103404 103405140 976 -439 96728 -46754 -32568 -471062
103408 103409648 756 -952 97851 -46930 -32968 -471099
103412 103413428 1196 -805 96704 -46918 -33663 -471081
103416 103417216 732 -683 97509 -46896 -33888 -471215
103420 103420980 1171 -244 97656 -46304 -34529 -471156
103424 103424756 292 -488 97070 -45845 -34300 -471195
103428 103428500 1147 -439 96606 -45405 -34964 -471300
103432 103432280 244 -1025 97045 -45741 -34497 -471283
103435 103436064 634 -366 96362 -45365 -34475 -471485
103439 103439816 341 -927 97900 -45500 -34093 -471430
103443 103443568 1293 -1342 97314 -46298 -34977 -471422
103447 103448120 683 -1000 97851 -46456 -35000 -471445
103451 103451900 756 -537 97338 -46174 -35260 -471414
103454 103455652 585 -805 97070 -46126 -35231 -471238
103458 103459424 439 -1000 97363 -46347 -35124 -471281
103462 103463204 585 -317 98095 -45828 -35252 -471373
103465 103466956 195 -903 97875 -45934 -34764 -471267
103470 103470732 1074 -390 97558 -45554 -35381 -471384
103474 103474500 219 -830 97436 -45692 -34912 -471375
103477 103478268 683 -976 98022 -46002 -35019 -471266
103491 103492460 1074 -512 97558 -45711 -35591 -471268
103495 103496240 781 -1660 97290 -46843 -35754 -471208
103499 103500024 537 -903 97314 -46994 -35700 -471217
103502 103503780 732 -439 96777 -46767 -35910 -471249
103506 103507532 122 -976 97680 -47062 -35473 -471181
103511 103511300 781 -366 97631 -46570 -35548 -471287
103514 103515048 390 -878 98339 -46694 -35242 -471275
103518 103518808 1074 -903 98022 -46806 -35753 -471282
103522 103522592 585 -659 97143 -46671 -35678 -471282
103525 103526352 317 -976 97363 -46847 -35323 -471344
103533 103533836 195 -781 96655 -46934 -34863 -471239
103536 103537604 634 -659 97656 -46818 -34842 -471215
103540 103541388 805 -952 97802 -46921 -35134 -471307
103544 103545164 976 -561 97509 -46514 -35639 -471317
103547 103548912 1098 -488 97094 -46161 -36220 -471358
103552 103552700 854 -708 97558 -45937 -36608 -471382
103556 103556468 708 -1318 96704 -46600 -36654 -471392
103560 103560248 830 -830 97412 -46726 -36980 -471356
103563 103564032 1318 -952 97607 -47007 -37761 -471295
103569 103569692 1147 -927 97460 -46928 -38403 -471136
103572 103573464 439 -1123 96923 -47354 -38098 -471100
103576 103577244 610 -732 97705 -47250 -38108 -471180
103580 103581008 683 -1245 97314 -47750 -38243 -471226
103584 103584796 927 -976 97802 -48008 -38518 -471254
103587 103588564 341 -1074 97338 -48188 -38063 -471353
103591 103592328 24 -903 98095 -48290 -37243 -471422
103596 103596092 927 -805 98510 -48307 -37633 -471340
103599 103599872 512 -1318 97387 -48918 -37498 -471353
103604 103604404 146 -1171 97705 -49316 -37013 -471360
103607 103608188 -317 -878 96435 -49400 -35856 -471366
103611 103611968 415 -1025 96459 -49536 -35611 -471459
103615 103615752 756 -683 96704 -49325 -35829 -471532
103618 103619512 537 -903 97363 -49511 -35706 -471557
103622 103623276 708 -952 97314 -49608 -35882 -471625
103626 103627036 292 -732 97412 -49483 -35475 -471566
103629 103630788 512 -805 97241 -49504 -35474 -471414
103633 103634548 634 -756 96850 -49429 -35531 -471592
103638 103638324 878 -830 97607 -49530 -35843 -471574
103642 103642856 610 -610 97973 -49243 -35902 -471685
103646 103646628 659 -1245 97436 -49688 -35993 -471589
103650 103650412 585 -1416 97314 -50314 -35920 -471539
103653 103654192 708 -805 97021 -50087 -36011 -471565
103657 103657968 561 -1025 97290 -50357 -36062 -471506
103661 103661748 659 -732 96362 -50186 -36104 -471570
103664 103665508 952 -927 97485 -50167 -36444 -471430
103668 103669284 634 -610 97656 -49832 -36391 -471481
103672 103673044 463 -219 96899 -49061 -36200 -471468
103676 103677548 634 -219 98632 -48337 -36227 -471597
103681 103681320 439 -732 98681 -48236 -36037 -471511
103684 103685076 659 -903 97314 -48372 -36113 -471615
103688 103688848 1269 -732 97705 -48302 -36679 -471512
103692 103692624 390 -952 97241 -48374 -36381 -471572
103695 103696372 561 -1293 97387 -48925 -36263 -471541
103699 103700164 878 -756 96997 -48765 -36519 -471560
103703 103703928 585 -439 97729 -48302 -36545 -471592
103707 103707688 1098 -1074 97460 -48645 -37063 -471662
103710 103711488 415 -585 96826 -48528 -36696 -471558
103715 103715992 463 -1098 97729 -48908 -36485 -471522
103718 103719764 -122 -732 97021 -48778 -35572 -471358
103723 103723540 781 -756 97778 -48584 -35797 -471487
103727 103727304 170 -610 97900 -48337 -35274 -471442
103730 103731072 585 -341 96606 -47795 -35236 -471363
103734 103734828 756 -1293 97729 -48322 -35242 -471169
103738 103738604 512 -708 96923 -48216 -35088 -471137
103741 103742356 561 -708 96411 -48173 -35170 -471187
103745 103746116 756 -390 96948 -47667 -35406 -471083
103749 103750624 781 -317 97631 -47058 -35599 -471194
103753 103754392 708 -610 97338 -46819 -35688 -471146
103757 103758156 805 -1147 97460 -47296 -36040 -471188
103761 103761940 219 -561 96923 -47136 -35464 -471211
103764 103765696 268 -1245 97460 -47652 -35097 -471212
103769 103769476 585 -1635 98168 -48574 -35090 -471244
103773 103773268 463 -708 96484 -48543 -34946 -471167
103776 103777024 73 -659 96801 -48283 -34151 -471003
103780 103780780 561 -1220 98730 -48802 -34095 -471054
103784 103784560 73 -463 97387 -48355 -33308 -470995
103797 103798684 1000 -610 96923 -48032 -33626 -471553
103801 103802456 292 -390 97656 -47454 -33252 -471547
103805 103806204 390 -830 97387 -47561 -33157 -471511
103809 103809960 805 -1293 97167 -48090 -33513 -471646
103813 103813744 854 -781 97753 -48189 -33889 -471549
103817 103817516 561 -854 97753 -48210 -33903 -471522
103820 103821284 439 -1171 97338 -48550 -33812 -471532
103824 103825060 292 -439 97705 -48037 -33530 -471545
103828 103828812 927 -1293 96557 -48698 -33989 -471545
103835 103836328 -415 -1147 96704 -49223 -32770 -471397
103839 103840112 219 -561 98022 -48954 -32383 -471356
103843 103843876 390 -781 98120 -48880 -32189 -471220
103846 103847656 24 -708 97705 -48591 -31529 -471300
103851 103851400 659 -708 97070 -48493 -31703 -471300
103855 103855168 439 -1391 96386 -49183 -31549 -471264
103858 103858956 854 -659 96533 -49121 -31989 -471271
103862 103862720 1220 -268 96679 -48427 -32807 -471409
103866 103866500 805 -903 97729 -48483 -33223 -471377
103872 103872752 830 -415 97265 -48058 -33469 -471333
103875 103876508 292 -659 97778 -47776 -33020 -471413
103879 103880260 732 -195 97216 -47118 -33310 -471462
103883 103884024 805 -1123 96337 -47567 -33563 -471545
103886 103887800 756 -683 97021 -47412 -33663 -471674
103890 103891556 -146 -610 98071 -47322 -32710 -471583
103895 103895324 463 -927 97705 -47554 -32535 -471680
103898 103899076 708 -1416 97265 -48243 -32673 -471717
103902 103902852 415 -659 97460 -48007 -32535 -471675
103906 103906612 903 -1123 96948 -48385 -32922 -471625
103910 103911148 122 -805 97607 -48358 -32368 -471675
103914 103914932 854 -488 97802 -48081 -32634 -471671
103918 103918688 659 -976 97656 -48191 -32910 -471621
103921 103922464 512 -1269 98754 -48600 -32873 -471695
103925 103926240 732 -805 97607 -48570 -33113 -471649
103929 103930024 683 -634 96337 -48436 -33253 -471517
103932 103933788 927 -1879 97827 -49582 -33671 -471488
103937 103937580 317 -1171 97338 -49983 -33457 -471305
103941 103941356 1269 -683 97485 -49788 -34273 -471306
103945 103945892 805 -634 97460 -49631 -34554 -471322
103949 103949672 317 -585 97534 -49337 -34193 -471400
103953 103953432 634 -927 96752 -49495 -34245 -471282
103956 103957204 -73 -708 96997 -49289 -33470 -471234
103960 103960968 463 -463 97485 -48792 -33326 -471289
103964 103964716 878 73 98632 -47817 -33781 -471161
103967 103968468 1318 -537 98120 -47663 -34696 -471339
103971 103972236 585 -830 97631 -47636 -34669 -471413
103975 103976012 952 -756 96923 -47521 -35104 -471450
103979 103979788 927 -317 96850 -47001 -35533 -471214
103984 103984296 366 -952 96752 -47226 -35283 -471258
103987 103988056 1098 -878 97216 -47385 -35869 -471277
103991 103991852 610 -1074 97827 -47614 -35941 -471241
103995 103995636 1269 -830 97363 -47662 -36772 -471136
103998 103999416 512 -781 96972 -47693 -36729 -471191
104002 104003180 756 -415 97460 -47187 -36839 -471156
104006 104006936 -268 -781 96972 -47182 -35787 -471165
104009 104010716 488 -585 97680 -46891 -35629 -471129
104013 104014468 537 24 97485 -45789 -35360 -471160
104017 104018948 1440 -854 97485 -45957 -36330 -471118
104022 104022736 683 -927 97875 -46021 -36467 -471218
104026 104026496 292 -488 97167 -45669 -36121 -471219
104030 104030256 -268 -1000 96850 -45977 -35039 -471169
104033 104034052 854 -781 97314 -46045 -35353 -471280
104037 104037832 1538 -683 97192 -45855 -36479 -471253
104041 104041612 -195 -1074 97021 -46177 -35476 -471217
104044 104045408 48 -1098 98071 -46622 -34934 -471095
104048 104049192 1196 -927 97192 -46690 -35637 -471004
104052 104053704 512 -854 97314 -46758 -35542 -471078
104056 104057480 24 -854 98193 -46857 -34994 -471122
104060 104061244 537 -1147 97973 -47250 -34934 -471099
104064 104065032 317 -585 97070 -46980 -34661 -471173
104068 104068784 146 -952 97265 -47313 -34030 -471302
104072 104072544 976 -708 97021 -47200 -34491 -471321
104076 104076324 366 -1220 96679 -47839 -34202 -471362
104079 104080088 219 -537 97167 -47422 -33816 -471363
104083 104083848 659 -732 97412 -47291 -33926 -471322
104087 104087616 708 -854 95996 -47443 -34144 -471337
104100 104101200 512 -195 97338 -46613 -34152 -471121
104103 104104948 415 -756 97192 -46479 -33787 -471103
104108 104108712 732 -1049 97119 -46730 -33895 -471159
104112 104112484 1318 268 96972 -45574 -34844 -471187
104116 104116252 878 -952 98071 -45794 -35122 -471215
104119 104120024 366 -244 97851 -45130 -34870 -471258
104123 104123768 781 -341 97143 -44510 -35181 -471227
104127 104127524 341 -781 97290 -44569 -34958 -471218
104130 104131284 341 -659 96606 -44365 -34680 -471292
104138 104138768 634 -292 97729 -43940 -34557 -471176
104141 104142520 24 -317 97924 -43380 -33969 -471243
104145 104146264 708 -927 97460 -43636 -34089 -471230
104150 104150032 805 -1245 97827 -44337 -34485 -471225
104153 104153824 292 -634 97045 -44106 -34252 -471219
104157 104157580 854 -878 97119 -44334 -34635 -471247
104161 104161352 488 -756 98193 -44399 -34564 -471252
104164 104165116 878 -1049 98095 -44727 -34956 -471216
104168 104168908 537 -756 97460 -44728 -34890 -471212
104172 104172676 292 -463 97290 -44426 -34549 -471208
104178 104179096 341 -488 97534 -44069 -34353 -471301
104182 104182840 1293 -659 96874 -43982 -35253 -471283
104185 104186632 73 -976 97582 -44406 -34529 -471253
104189 104190388 756 -952 97192 -44636 -34697 -471156
104194 104194164 1000 -390 98071 -44233 -35099 -471120
104197 104197944 1245 -488 97167 -43890 -35832 -471048
104201 104201708 659 -1245 97778 -44517 -35926 -471016
104205 104205496 1049 -683 96655 -44470 -36355 -470879
104208 104209272 -170 -903 97045 -44607 -35417 -470807
104213 104213800 219 -341 97436 -44196 -34964 -470734
104216 104217548 708 -805 96606 -44210 -35078 -470704
104220 104221324 708 -878 96997 -44426 -35168 -470766
104224 104225088 805 -805 97241 -44425 -35380 -470680
104227 104228868 292 -1342 97875 -45182 -35071 -470689
104231 104232644 683 -341 96948 -44572 -35129 -470644
104236 104236392 146 -488 96923 -44259 -34499 -470700
104240 104240148 634 -756 97167 -44304 -34568 -470659
104243 104243924 -292 -952 97167 -44650 -33612 -470818
104247 104247688 805 -390 97680 -44315 -33851 -470892
104251 104252188 854 -878 97216 -44574 -34082 -471015
104255 104255964 390 -976 96874 -44853 -33878 -470979
104259 104259732 634 -927 97900 -45114 -33865 -470984
104262 104263496 610 -488 97338 -44831 -33802 -470893
104266 104267252 512 -561 97070 -44612 -33769 -470793
104270 104271008 878 -1147 97290 -45041 -34036 -470821
104273 104274792 390 -903 97021 -45191 -33826 -470876
104278 104278568 756 -683 97119 -45230 -34151 -470748
104282 104282328 488 -1171 97827 -45749 -33943 -470817
104286 104286840 1147 -878 96704 -45877 -34605 -470894
104290 104290636 -24 -634 97314 -45740 -33900 -470734
104293 104294392 634 -1074 97070 -46050 -33982 -470781
104297 104298188 48 -366 96948 -45665 -33309 -470671
104301 104301932 537 -1171 96655 -46079 -33322 -470594
104305 104305712 561 -537 96874 -45907 -33237 -470645
104308 104309472 -24 -1147 97851 -46328 -32391 -470670
104312 104313256 341 -1171 97875 -46824 -32145 -470707
104316 104317032 1074 -390 97851 -46413 -32812 -470671
104320 104320804 585 -537 96508 -46148 -32698 -470809
104325 104325316 1098 -1123 97338 -46656 -33346 -470859
104328 104329116 512 -927 96874 -46995 -33324 -470933
104332 104332876 268 -732 96826 -46924 -32889 -470848
104336 104336636 463 -927 98559 -47025 -32754 -470899
104339 104340396 390 -854 97729 -46986 -32572 -470912
104343 104344160 1025 -415 97070 -46670 -33218 -471047
104347 104347932 219 -634 97558 -46506 -32935 -471079
104350 104351688 1123 -830 96166 -46561 -33671 -471068
104354 104355484 830 -732 97290 -46530 -34061 -470922
104359 104360008 -48 -878 97265 -46624 -33308 -470904
104363 104363796 366 -708 97167 -46589 -32972 -471042
104367 104367548 561 -1000 96850 -46825 -32925 -470933
104371 104371332 390 -317 97143 -46331 -32770 -470979
104374 104375084 512 -1293 98535 -46803 -32588 -470870
104378 104378856 390 -756 96655 -46757 -32375 -470807
104382 104382624 512 -1196 98071 -47203 -32319 -470862
104385 104386404 -268 -878 97387 -47307 -31396 -470808
104389 104390188 512 -1123 97387 -47624 -31392 -470808
104402 104403716 512 -1171 98095 -48172 -31352 -470768
104407 104407500 537 -952 97485 -48333 -31394 -470819
104411 104411268 366 -195 97387 -47611 -31276 -470783
104414 104415024 610 -1269 97509 -48224 -31310 -470637
104418 104418804 390 -1098 97534 -48574 -31127 -470711
104422 104422584 585 -878 97314 -48697 -31309 -470762
104425 104426352 585 -1049 97363 -48943 -31441 -470653
104429 104430140 390 -1196 97119 -49222 -31264 -470696
104433 104433916 97 -1318 97509 -49774 -30836 -470788
104436 104437688 366 -244 97363 -48996 -30534 -470685
104444 104445156 463 -1440 97534 -49879 -30358 -470782
104448 104448912 878 -634 97070 -49603 -30852 -470836
104452 104452684 415 -1245 96826 -50092 -30723 -470782
104456 104456468 634 -805 97265 -50094 -30899 -470847
104459 104460244 732 -683 97900 -49882 -31165 -470817
104463 104464012 756 -732 97290 -49845 -31388 -470671
104467 104467764 927 -1147 96972 -50290 -31840 -470612
104471 104471560 488 -1000 97802 -50517 -31728 -470416
104474 104475332 1367 -1318 97460 -51112 -32590 -470294
104480 104480792 195 -830 96362 -51086 -31995 -470265
104483 104484572 903 -1171 97827 -51463 -32344 -470076
104487 104488360 903 -756 97241 -51381 -32746 -470109
104492 104492132 292 -1074 98120 -51613 -32511 -470119
104495 104495924 463 -781 97290 -51425 -32452 -470028
104499 104499688 317 -903 97192 -51476 -32188 -470024
104503 104503464 878 -659 96948 -51254 -32617 -470010
104506 104507240 903 -610 97094 -51023 -32968 -469981
104510 104511012 122 -1000 97021 -51240 -32539 -470030
104514 104514796 390 -1171 97192 -51679 -32418 -469976
104518 104519316 634 -390 97949 -51120 -32396 -470045
104522 104523076 97 -1171 97290 -51443 -31861 -470009
104526 104526860 585 -781 96997 -51374 -31990 -469973
104529 104530636 317 -585 97192 -51207 -31823 -470016
104534 104534392 1000 -732 97778 -50977 -32446 -469968
104538 104538172 1318 -1196 96240 -51459 -33364 -469886
104541 104541976 439 -952 97241 -51416 -33272 -469960
104545 104545744 854 -561 96899 -51138 -33623 -469906
104549 104549516 512 -122 97045 -50355 -33478 -469934
104553 104554028 97 -952 98022 -50336 -32926 -469919
104557 104557796 537 -1293 97534 -50905 -32891 -469943
104560 104561580 463 -1074 97070 -51204 -32790 -469962
104564 104565364 585 -708 97290 -50818 -32881 -470072
104568 104569124 1293 -683 97045 -50557 -33704 -470013
104571 104572904 -24 -390 96899 -50153 -33123 -469910
104576 104576656 756 -634 98022 -49737 -33319 -469995
104580 104580416 488 -781 97631 -49629 -33251 -470037
104583 104584172 708 -1025 97070 -49875 -33410 -469973
104588 104588712 390 -976 97265 -50036 -33265 -469968
104592 104592480 -24 -683 97387 -49800 -32582 -469936
104595 104596248 146 -195 97436 -48976 -32004 -469912
104599 104600016 634 -1025 97607 -49157 -32210 -469886
104603 104603796 463 -585 96948 -48953 -32017 -469941
104606 104607548 268 -708 97094 -48793 -31696 -470021
104610 104611312 830 -1074 97802 -49032 -31983 -470067
104614 104615096 708 -1098 99096 -49287 -32048 -469995
104617 104618876 708 -610 95947 -49033 -32301 -470049
104622 104622636 512 -952 97314 -49169 -32255 -470159
104626 104627148 1049 -341 97778 -48689 -32837 -470252
104630 104630912 390 -683 98193 -48491 -32735 -470173
104634 104634672 -244 -244 97436 -47783 -31813 -470141
104637 104638436 878 -805 97534 -47805 -32135 -469928
104641 104642212 366 -830 95996 -47698 -31860 -469874
104645 104645968 439 -634 97558 -47514 -31625 -469815
104648 104649724 659 -1318 97460 -48213 -31648 -469820
104652 104653508 219 -537 97192 -47938 -31415 -470016
104656 104657260 512 -390 96435 -47440 -31389 -469989
104660 104661768 585 -1000 97924 -47553 -31398 -469868
104665 104665568 805 -1220 97265 -48000 -31703 -469855
104669 104669368 561 -634 97094 -47854 -31707 -469920
104672 104673128 488 -903 97119 -48000 -31580 -469859
104676 104676900 -48 -708 97607 -47777 -30804 -469768
104680 104680664 903 -512 97875 -47455 -31311 -469815
104683 104684424 512 -976 97314 -47801 -31327 -469846
104687 104688188 561 -1220 97778 -48259 -31271 -469859
104691 104691968 317 -1318 97070 -48901 -30938 -469891
104694 104695736 -73 -952 97192 -49155 -30211 -469953
104710 104710312 463 -781 97509 -49545 -30051 -470207
104713 104714068 634 -1513 97778 -50252 -30095 -470141
104717 104717836 512 -732 98022 -50194 -30050 -470224
104721 104721596 1049 -439 97216 -49629 -30755 -470261
104724 104725368 146 -1123 97119 -49987 -30226 -470249
104728 104729152 1171 -1147 96948 -50369 -30908 -470024
104732 104732948 610 -415 96972 -49835 -31174 -470075
104735 104736708 488 -561 97509 -49506 -31122 -470118
104739 104740464 878 -708 97802 -49365 -31484 -470089
104747 104747952 122 -952 97778 -49760 -30919 -470078
104751 104751728 1098 -659 97460 -49542 -31589 -469987
104755 104755520 561 -1049 97582 -49767 -31642 -469983
104759 104759308 463 -561 96948 -49522 -31644 -470070
104762 104763056 390 -659 97167 -49341 -31439 -470077
104766 104766824 415 -488 97680 -48879 -31286 -470110
104770 104770572 756 -854 97485 -48875 -31628 -470087
104773 104774348 561 -781 97460 -48896 -31718 -470125
104777 104778116 1049 -878 97631 -48987 -32255 -470240
104782 104783768 292 -537 97387 -48828 -32071 -470248
104786 104787512 732 -1074 98120 -49048 -32356 -470203
104791 104791292 781 -146 98120 -48141 -32618 -470194
104794 104795060 146 -952 97778 -48332 -32051 -470293
104798 104798828 1123 -976 96679 -48494 -32654 -470287
104802 104802612 634 -512 97607 -48087 -32775 -470434
104805 104806368 903 -1367 96972 -48790 -33286 -470423
104809 104810144 659 -585 96972 -48551 -33396 -470283
104813 104813908 244 -1416 96923 -49286 -33095 -470242
104817 104817680 683 -610 97436 -49015 -33176 -470284
104821 104822196 756 -585 97167 -48799 -33432 -470144
104825 104825952 561 -659 97314 -48565 -33436 -470085
104828 104829728 488 -878 95825 -48632 -33489 -469827
104833 104833496 732 -708 96801 -48472 -33549 -469832
104837 104837248 1098 -1049 97436 -48734 -34199 -469778
104840 104841056 927 -1220 97167 -49266 -34594 -469723
104844 104844848 878 -1171 98046 -49706 -34932 -469889
104848 104848632 878 -1293 97631 -50366 -35272 -469912
104851 104852420 952 -1269 97265 -50880 -35714 -469882
104856 104856960 683 -585 97290 -50536 -35772 -469883
104860 104860728 366 -976 98217 -50572 -35388 -469879
104863 104864488 610 -415 97436 -50182 -35365 -469788
104867 104868260 708 -317 97558 -49552 -35509 -469738
104871 104872024 1000 -830 96850 -49450 -36088 -469785
104875 104875820 317 -878 97851 -49508 -35757 -469869
104879 104879592 903 -854 97363 -49534 -36170 -469888
104883 104883372 292 -683 97485 -49348 -35793 -469980
104886 104887136 659 -634 97290 -48997 -35868 -469902
104890 104890908 512 -708 97827 -48798 -35883 -469852
104894 104895400 -122 -927 97778 -48815 -35014 -469907
104898 104899180 708 -903 96948 -48962 -34980 -470024
104902 104902944 512 -805 97021 -48918 -34838 -470029
104905 104906708 781 -537 97558 -48482 -35086 -469969
104909 104910468 878 -927 96972 -48545 -35360 -469847
104913 104914232 781 -488 96655 -48172 -35541 -469875
104916 104917992 659 -732 97998 -48156 -35585 -469845
104921 104921764 756 -341 97607 -47644 -35675 -469785
104925 104925512 292 -1171 97534 -48042 -35362 -469639
104929 104930032 781 -952 97167 -48170 -35519 -469664
104933 104933804 1000 -561 98364 -47871 -35968 -469729
104937 104937588 708 -952 97143 -47993 -36095 -469752
104940 104941368 927 -1245 97167 -48396 -36224 -469716
104944 104945144 -122 -708 98486 -48347 -35468 -469804
104948 104948912 170 -585 97973 -48004 -34924 -469694
104951 104952664 927 -878 98120 -48018 -35205 -469811
104955 104956436 1025 -122 96801 -47181 -35743 -469812
104960 104960228 512 -1196 96826 -47721 -35596 -470050
104963 104963996 341 -390 97680 -47226 -35252 -469929
104968 104968492 585 -1489 97900 -48134 -35194 -469936
104971 104972272 561 -1489 97119 -48924 -35018 -469967
104975 104976052 708 -927 97729 -49107 -35192 -470047
104979 104979820 830 -610 97729 -48914 -35495 -470180
104983 104983584 1171 -341 98022 -48345 -36094 -470144
104986 104987360 976 -1049 97094 -48715 -36528 -470157
104990 104991144 805 -1098 96923 -49162 -36761 -470185
104994 104994940 512 -1049 97412 -49437 -36608 -470153
104997 104998720 292 -48 97973 -48525 -36180 -470087
105013 105013264 1074 -878 97607 -47965 -36683 -470112
105016 105017048 610 -732 97705 -47914 -36578 -470192
105020 105020804 781 -1000 98046 -48140 -36816 -470252
105024 105024596 463 -756 98168 -48148 -36677 -470290
105027 105028356 634 -927 97534 -48300 -36638 -470223
105031 105032128 1196 -976 97412 -48448 -37355 -470398
105035 105035912 1123 -830 98339 -48381 -37914 -470499
105038 105039704 292 -756 97070 -48332 -37534 -470512
105042 105043472 659 -732 97924 -48197 -37602 -470581
105050 105050956 610 -976 96899 -48349 -37566 -470721
105054 105054728 488 -708 97924 -48167 -37465 -470781
105058 105058480 830 -463 97021 -47789 -37676 -470891
105061 105062244 732 -1123 97851 -48168 -37812 -471020
105065 105066028 292 -341 97778 -47655 -37438 -471002
105069 105069784 170 -561 98095 -47364 -36931 -471021
105072 105073552 830 -170 97631 -46619 -37211 -470985
105076 105077328 1000 -537 97387 -46428 -37546 -471047
105080 105081092 732 -1000 97070 -46700 -37617 -470892
105083 105084864 585 -1049 97607 -47144 -37483 -470886
105091 105091116 732 -439 97265 -46889 -37612 -470920
105094 105094876 415 -732 97705 -46896 -37314 -470780
105098 105098628 415 -927 97582 -47000 -36985 -470858
105102 105102388 585 -317 97314 -46403 -37005 -470928
105105 105106144 219 -366 96801 -45898 -36492 -471026
105109 105109896 170 -903 97143 -46029 -35984 -471090
105113 105113668 1220 -976 97607 -46382 -36672 -471054
105116 105117456 1123 -976 97802 -46594 -37233 -471037
105120 105121260 732 -659 97509 -46456 -37401 -471115
105124 105125764 1196 -1416 97753 -47147 -38040 -470975
105128 105129560 683 -732 97485 -47022 -38116 -470854
105133 105133324 854 -341 97143 -46495 -38422 -470818
105136 105137084 927 -659 97705 -46406 -38768 -470892
105140 105140848 732 -1269 96215 -46913 -38994 -470905
105144 105144624 439 -561 97412 -46615 -38701 -470979
105147 105148372 219 -659 97851 -46486 -38134 -471095
105151 105152136 463 -1123 97119 -46937 -37879 -470968
105155 105155912 1025 -732 96630 -46966 -38358 -470918
105159 105159688 903 -781 97412 -46835 -38718 -470873
105163 105164212 1098 -1025 98120 -47038 -39236 -470916
105167 105168008 292 -488 96801 -46708 -38809 -470852
105170 105171764 903 -537 97460 -46407 -39001 -470739
105175 105175532 439 -781 98168 -46410 -38745 -470790
105179 105179304 708 -976 97949 -46487 -38823 -470749
105182 105183072 170 -781 96874 -46543 -38222 -470780
105186 105186848 756 -1342 97338 -47239 -38278 -470648
105190 105190624 976 -1416 96826 -47975 -38644 -470749
105193 105194400 659 -659 96850 -47708 -38689 -470719
105198 105198920 854 -341 96923 -47327 -38845 -470738
105201 105202668 878 -732 96923 -47288 -39069 -470679
105205 105206444 659 -634 97973 -47009 -39073 -470692
105209 105210208 805 -488 96704 -46671 -39253 -470848
105213 105213976 927 -1367 97143 -47405 -39589 -470928
105217 105217756 732 -830 97290 -47413 -39579 -470899
105221 105221524 659 -488 97485 -46968 -39560 -470977
105225 105225280 -24 -195 97802 -46218 -38765 -470945
105228 105229052 585 -1538 97656 -47124 -38710 -471111
105233 105233592 244 -634 96874 -47132 -38293 -471337
105236 105237344 512 -512 98022 -46772 -38063 -471466
105240 105241100 561 -732 97656 -46644 -37941 -471563
105244 105244852 439 -878 97241 -46779 -37720 -471605
105247 105248620 976 -585 97998 -46549 -38158 -471648
105251 105252392 1342 -952 96972 -46774 -38835 -471533
105255 105256168 170 -1000 97412 -46982 -38266 -471483
105259 105259948 585 -805 97021 -46951 -38271 -471461
105263 105263720 1293 -1025 97216 -47252 -38890 -471394
105267 105267512 585 -1318 96118 -47956 -38907 -471486
105271 105272032 585 -1342 96313 -48686 -38896 -471365
105275 105275816 24 -781 97607 -48658 -38131 -471343
105279 105279580 463 -585 97607 -48271 -37915 -471408
105282 105283340 219 -708 97631 -48168 -37615 -471280
105286 105287108 585 -708 96850 -48071 -37509 -471171
105290 105290868 927 -952 97851 -48122 -37843 -471235
105293 105294644 122 -830 97143 -48153 -37203 -471218
105297 105298428 756 -1245 96874 -48610 -37275 -471310
105302 105302200 317 -952 97070 -48817 -36949 -471414
105315 105316164 830 -1391 97509 -49817 -37279 -471481
105319 105319944 805 -927 98095 -49839 -37499 -471550
105323 105323716 390 -1513 97924 -50713 -37150 -471450
105326 105327472 537 -708 97265 -50540 -36917 -471426
105330 105331236 585 -903 97045 -50550 -36975 -471524
105334 105335000 561 -732 97924 -50357 -36940 -471502
105337 105338760 561 -878 97143 -50359 -36902 -471496
105341 105342532 878 -1025 97290 -50471 -37210 -471253
105346 105346320 830 -1000 97973 -50737 -37412 -471240
105349 105350104 244 -1245 97167 -51270 -37086 -471216
105357 105357608 585 -1293 97802 -51586 -36774 -471314
105360 105361380 341 -1782 97680 -52700 -36448 -471314
105364 105365160 341 -512 97265 -52300 -36137 -471315
105368 105368912 1049 -659 97241 -52014 -36622 -471251
105372 105372696 1049 -1098 96557 -52315 -37119 -471266
105375 105376504 634 -512 97607 -51860 -37143 -471242
105379 105380276 732 -24 97167 -50786 -37212 -471256
105383 105384028 903 -537 97265 -50422 -37561 -471165
105387 105387804 732 -756 97412 -50269 -37653 -471090
105394 105394244 390 -1000 96606 -50444 -37313 -471081
105397 105398028 976 -415 98022 -50072 -37658 -471229
105401 105401796 585 -903 97021 -50179 -37796 -471266
105405 105405568 -97 -927 97558 -50253 -37040 -471303
105408 105409340 390 -1049 98559 -50590 -36720 -471304
105412 105413116 903 -610 97460 -50207 -37050 -471254
105416 105416892 878 -903 96630 -50365 -37434 -471314
105419 105420664 512 -903 97705 -50526 -37158 -471290
105423 105424424 1098 -268 97314 -49930 -37508 -471266
105427 105428944 683 -708 97607 -49832 -37594 -471336
105432 105432712 170 -878 97631 -49701 -37111 -471422
105436 105436480 903 -1074 98071 -50053 -37381 -471386
105440 105440264 708 -1367 96752 -50663 -37546 -471432
105443 105444048 1049 -1245 97143 -50947 -37863 -471549
105447 105447840 732 -952 97827 -51143 -37988 -471490
105451 105451604 1367 -268 97875 -50441 -38768 -471454
105454 105455388 317 -1464 97216 -51250 -38400 -471308
105458 105459168 1171 -708 97582 -51057 -38969 -471199
105462 105462948 317 -537 96948 -50717 -38585 -471126
105466 105467460 756 -952 98535 -51096 -38555 -470982
105470 105471224 512 -1098 97973 -51295 -38494 -470970
105474 105474996 854 -488 97656 -50886 -38819 -470837
105478 105478772 903 -195 97436 -49908 -39031 -470904
105482 105482540 0 -1318 97558 -50464 -38180 -470996
105485 105486164 1049 -976 98217 -50554 -38686 -471034
105489 105489952 610 -1293 97216 -51096 -38585 -471025
105493 105493736 512 -1147 97338 -51489 -38468 -471053
105496 105497504 561 -830 96630 -51368 -38403 -471097
105501 105502020 244 -903 97631 -51361 -37894 -471158
105504 105505784 683 -585 97412 -51087 -37808 -471127
105508 105509552 1098 -878 97851 -51108 -38270 -471030
105512 105513352 585 -439 96874 -50679 -38248 -470988
105517 105517108 756 -708 97167 -50466 -38351 -470956
105520 105520872 781 -708 96459 -50299 -38527 -470945
105524 105524644 512 -878 97485 -50310 -38451 -470918
105528 105528416 415 -927 97558 -50529 -38252 -470868
105531 105532184 415 -1293 97460 -50988 -38014 -470728
105535 105535968 878 -903 97338 -50947 -38218 -470761
105539 105540488 366 -390 97338 -50414 -37834 -470621
105543 105544232 1074 -976 98046 -50459 -38342 -470738
105547 105548016 122 -195 96972 -49673 -37739 -470624
105550 105551784 -122 -1489 97900 -50269 -36922 -470582
105554 105555572 317 -732 97729 -50147 -36701 -470628
105559 105559324 1098 -830 96972 -50130 -37200 -470615
105562 105563120 708 -830 97460 -50177 -37202 -470628
105566 105566896 317 -195 97143 -49514 -36823 -470439
105570 105570664 170 -781 96679 -49442 -36264 -470481
105574 105575180 610 -708 97192 -49241 -36285 -470494
105578 105578952 561 -805 96630 -49294 -36134 -470449
105582 105582732 463 -1098 97119 -49570 -35951 -470417
105585 105586512 219 -903 97753 -49567 -35433 -470339
105589 105590276 1147 -683 98852 -49365 -36047 -470394
105593 105594068 -122 -781 97827 -49254 -35248 -470445
105596 105597840 1025 -952 97216 -49229 -35733 -470507
105601 105601620 463 -512 97070 -48935 -35593 -470593
105605 105605372 659 -585 97534 -48632 -35590 -470662
105608 105609128 683 -585 96874 -48301 -35582 -470663
105622 105623028 610 -463 96801 -47617 -35641 -471121
105626 105626784 463 -952 96826 -47820 -35453 -471085
105629 105630548 805 -561 97802 -47625 -35702 -471098
105633 105634312 488 -1049 97607 -47955 -35559 -471085
105637 105638084 1074 -341 97436 -47409 -36275 -471053
105640 105641852 708 -512 97851 -46973 -36277 -471054
105645 105645604 927 -366 97705 -46523 -36678 -471009
105649 105649356 634 -439 97582 -46047 -36665 -470973
105652 105653108 1123 -390 97778 -45532 -37382 -470876
105660 105660608 878 -854 96923 -45770 -37522 -470962
105663 105664376 585 -854 97534 -45926 -37588 -470945
105667 105668144 512 -976 97460 -46050 -37400 -470939
105671 105671904 341 -488 97705 -45788 -37091 -470940
105674 105675640 1025 -1293 96533 -46428 -37545 -471081
105678 105679436 390 -976 97973 -46697 -37302 -471057
105682 105683200 463 -976 97851 -46895 -37101 -471122
105686 105686968 439 -1049 97241 -47361 -36746 -471237
105690 105690736 219 -634 97290 -47187 -36195 -471122
105695 105696160 512 -1147 96801 -47566 -36029 -471092
105699 105699936 585 -1147 97558 -47880 -36035 -471160
105703 105703712 341 -1171 96997 -48353 -35626 -471243
105706 105707480 463 -1049 97631 -48698 -35437 -471213
105710 105711252 0 -1440 97460 -49365 -34881 -471153
105714 105714872 488 -952 97265 -49434 -34666 -471304
105717 105718628 1220 -610 97485 -49248 -35614 -471103
105721 105722416 415 -512 97314 -49006 -35363 -471025
105725 105726164 634 -1000 97998 -49162 -35365 -470989
105729 105729944 927 -561 96874 -48821 -35692 -470965
105734 105734464 756 -976 97607 -49064 -35954 -470929
105737 105738224 97 -1342 96679 -49743 -35379 -470911
105741 105742008 952 -219 97875 -48918 -35616 -470814
105745 105745772 1098 -512 97436 -48561 -36171 -470810
105749 105749548 634 -1464 97460 -49237 -36160 -470976
105752 105753324 1171 -659 97412 -49215 -36794 -470885
105756 105757104 366 -952 96728 -49230 -36427 -470977
105760 105760852 634 -781 97729 -49221 -36454 -471023
105763 105764632 390 -1147 96850 -49644 -36219 -471121
105768 105769164 952 -561 96826 -49377 -36723 -471092
105772 105772920 708 -732 97534 -49324 -36751 -471135
105776 105776676 512 -927 97070 -49331 -36632 -471108
105780 105780436 -73 -732 97949 -49104 -35825 -471090
105783 105784192 512 -1269 97192 -49751 -35650 -471158
105787 105787968 1196 -415 97802 -49221 -36318 -471159
105791 105791748 610 -927 98022 -49349 -36307 -471054
105794 105795520 268 -756 97607 -49186 -35929 -471134
105798 105799276 341 -659 96899 -49008 -35641 -471068
105802 105803028 1245 -805 97070 -49020 -36449 -471000
105806 105807564 1098 -756 97094 -49189 -36923 -470917
105810 105811344 756 -1196 97998 -49588 -37108 -470963
105815 105815132 1171 -756 96948 -49469 -37860 -470876
105818 105818916 585 -732 97827 -49316 -37757 -470816
105822 105822680 854 -830 97338 -49353 -37893 -470707
105826 105826456 415 -952 97680 -49488 -37619 -470648
105829 105830228 683 -1245 97558 -50046 -37816 -470685
105833 105834008 952 -512 98071 -49637 -38246 -470663
105837 105837776 122 -439 98510 -49210 -37688 -470709
105841 105842280 170 -830 96606 -49393 -37089 -470893
105845 105846048 390 -927 98413 -49459 -36790 -470907
105848 105849812 366 -756 97949 -49309 -36378 -470920
105852 105853556 97 -415 97045 -48823 -35605 -471051
105857 105857308 781 -683 98022 -48606 -35826 -470969
105860 105861072 292 -1171 97485 -48858 -35469 -470969
105864 105864856 927 -561 97534 -48596 -35858 -471001
105868 105868624 634 -537 96850 -48328 -35804 -470960
105871 105872376 659 -878 96118 -48393 -35796 -470974
105876 105876904 976 -878 96582 -48589 -36319 -470926
105880 105880680 1049 -1513 97192 -49461 -36747 -470940
105883 105884476 1293 -854 97582 -49573 -37373 -470886
105887 105888260 634 -756 96972 -49603 -37324 -470882
105891 105892032 854 -1025 97924 -49740 -37498 -470860
105894 105895820 146 -439 97143 -49343 -36822 -470848
105899 105899572 1098 -732 97045 -49216 -37304 -470910
105903 105903356 708 -219 97119 -48478 -37369 -470842
105906 105907112 317 -1074 97753 -48782 -36907 -470733
105910 105910880 1049 -854 98657 -48836 -37504 -470666
105925 105925868 390 -756 97460 -48630 -37579 -470092
105928 105929608 659 -317 96972 -48034 -37526 -470068
105932 105933372 585 -415 97778 -47657 -37429 -470087
105936 105937128 756 -756 97802 -47592 -37686 -470046
105939 105940884 561 -878 97851 -47694 -37406 -470062
105944 105944648 659 -1269 96899 -48303 -37285 -470081
105948 105948424 805 -537 97778 -47963 -37436 -470013
105951 105952184 439 -1049 97021 -48269 -37132 -469989
105955 105955956 463 -561 98022 -47938 -36868 -470015
105962 105963428 195 -1074 96411 -48144 -36379 -470016
105966 105967216 1049 -1245 97314 -48559 -36806 -469894
105970 105971008 97 -463 97436 -48153 -36259 -469890
105973 105974756 952 -952 97363 -48348 -36683 -469891
105977 105978536 1074 -952 97216 -48463 -37236 -469843
105981 105982328 24 -976 96630 -48540 -36553 -469856
105986 105986088 268 -1147 97460 -48888 -36216 -469824
105989 105989864 561 -708 98120 -48745 -36109 -469788
105993 105993632 537 -1000 97387 -48944 -36061 -469784
105997 105997416 708 -756 97192 -48935 -36177 -469707
106002 106003056 854 -1123 97241 -49247 -36393 -469845
106006 106006844 781 -878 97753 -49230 -36628 -469864
106009 106010620 708 -244 97753 -48587 -36785 -469723
106013 106014384 512 -1245 97680 -49132 -36504 -469772
106017 106018148 317 -1464 97119 -49878 -36200 -469818
106021 106021924 366 -781 98315 -49690 -35815 -469750
106024 106025672 341 -659 97241 -49490 -35625 -469743
106029 106029424 463 -927 97167 -49600 -35525 -469758
106033 106033188 708 -585 97045 -49234 -35724 -469749
106037 106037696 317 -1147 97460 -49666 -35427 -469786
106041 106041472 341 -756 97851 -49542 -35067 -469842
106044 106045220 659 -756 97875 -49457 -35153 -470007
106048 106048988 976 -122 96826 -48492 -35625 -469999
106052 106052760 659 -830 97265 -48511 -35723 -469880
106055 106056536 561 -976 97534 -48642 -35629 -469740
106059 106060308 781 -830 97167 -48671 -35813 -469782
106063 106064088 805 -732 97485 -48533 -36118 -469860
106066 106067848 24 -952 97192 -48672 -35495 -469922
106071 106071608 463 -854 97656 -48727 -35368 -470015
106075 106076116 805 -952 97094 -48926 -35561 -469954
106079 106079892 415 -1123 97607 -49226 -35333 -469839
106083 106083672 512 -561 97363 -48908 -35259 -469785
106087 106087432 781 -219 97875 -48242 -35520 -469785
106090 106091204 732 -878 97558 -48329 -35547 -469847
106094 106094976 415 -537 97045 -48056 -35230 -469856
106098 106098724 683 -1293 97680 -48592 -35374 -469825
106101 106102512 73 -1391 97778 -49061 -34719 -469838
106105 106106280 488 -878 98095 -49144 -34651 -469793
106109 106110788 488 -756 96484 -49234 -34497 -469771
106114 106114552 1342 -683 97412 -49046 -35465 -469872
106118 106118332 634 -1074 98071 -49357 -35468 -469909
106121 106122112 317 -830 97070 -49316 -35232 -469977
106125 106125880 317 -463 97778 -48923 -35129 -469959
106129 106129632 903 -952 97192 -49010 -35426 -469900
106132 106133392 268 -634 97070 -48894 -35092 -469992
106136 106137148 341 -756 97778 -48781 -34793 -470011
106140 106140908 48 -1293 97509 -49318 -34161 -470016
106144 106145440 1098 -805 97119 -49240 -34740 -470032
106148 106149240 585 -390 96801 -48894 -34755 -470038
106152 106153000 512 -463 96972 -48436 -34686 -470154
106156 106156744 341 -634 96655 -48425 -34401 -470204
106160 106160500 903 -1074 96606 -48696 -34746 -470245
106164 106164288 854 -830 96923 -48749 -35202 -470159
106167 106168068 366 -634 97949 -48417 -35001 -470135
106171 106171816 292 -756 96362 -48310 -34652 -470090
106175 106175588 439 -878 97387 -48478 -34420 -470040
106178 106179356 366 -732 97582 -48585 -34116 -469986
106183 106183856 781 -488 97729 -48158 -34437 -470115
106186 106187612 24 -1025 96606 -48526 -33821 -470115
106190 106191392 195 -878 96362 -48639 -33374 -470073
106194 106195168 512 -219 96874 -47922 -33275 -470124
106198 106198932 122 -1147 97949 -48189 -32920 -470133
106202 106202712 341 -122 96704 -47336 -32658 -470243
106206 106206468 244 -781 97460 -47354 -32339 -470262
106209 106210236 463 -1293 97265 -47879 -32295 -470202
106213 106214012 1098 -683 98828 -47763 -32866 -470093
106228 106228960 73 -634 97973 -47557 -31969 -470437
106231 106232712 708 -1025 97290 -47959 -32149 -470358
106235 106236488 292 -561 98242 -47692 -31952 -470463
106240 106240244 537 -756 97705 -47651 -31796 -470549
106243 106243992 1074 -1147 97998 -48012 -32371 -470464
106247 106247788 1049 -1049 97021 -48377 -32907 -470556
106251 106251576 1000 -805 97656 -48464 -33385 -470543
106255 106255368 512 -634 98193 -48232 -33313 -470475
106258 106259132 561 -976 96679 -48271 -33267 -470543
106262 106262896 292 -781 97021 -48225 -33031 -470511
106269 106270400 732 -781 97314 -48361 -33217 -470469
106273 106274164 1074 -756 96386 -48327 -33836 -470502
106277 106277956 1000 -903 97558 -48445 -34247 -470420
106280 106281748 317 -390 98266 -48083 -33929 -470459
106285 106285504 659 -708 98144 -47994 -34085 -470542
106289 106289264 927 -585 97802 -47713 -34443 -470524
106292 106293036 805 -1220 97045 -48100 -34702 -470397
106296 106296820 683 -805 97387 -48132 -34859 -470416
106300 106300600 805 -1049 97436 -48424 -35103 -470398
106306 106306876 488 -805 97656 -48358 -34915 -470417
106309 106310632 146 -1098 98217 -48697 -34331 -470537
106313 106314424 1000 -1000 96826 -48945 -34671 -470635
106317 106318220 244 -317 97534 -48246 -34262 -470576
106321 106321976 -73 -708 97998 -48128 -33394 -470600
106324 106325736 1123 -732 97119 -47935 -34062 -470661
106329 106329516 -683 -1220 97192 -48394 -32663 -470639
106333 106333312 1220 -708 97558 -48169 -33463 -470603
106336 106337092 634 -976 97143 -48335 -33665 -470604
106341 106341588 756 -585 97314 -47983 -33999 -470555
106344 106345352 122 97 97314 -46976 -33424 -470489
106348 106349104 537 -903 96899 -47070 -33436 -470435
106352 106352876 1416 -854 96582 -47180 -34413 -470353
106355 106356652 708 -439 97290 -46767 -34645 -470256
106359 106360408 292 -756 97216 -46738 -34342 -470098
106363 106364172 48 -805 98461 -46769 -33647 -470277
106366 106367940 708 -415 97680 -46495 -33734 -470079
106371 106371692 781 -976 97509 -46690 -33962 -470153
106375 106375468 927 -634 97680 -46471 -34301 -470122
106379 106379976 756 -854 97290 -46602 -34548 -470184
106383 106383748 48 -1367 97167 -47230 -33818 -470221
106387 106387524 24 -927 96020 -47439 -33173 -470153
106390 106391292 927 -927 97509 -47582 -33656 -470196
106394 106395068 -244 -781 97216 -47485 -32666 -470174
106398 106398840 195 -659 97143 -47386 -32258 -470334
106401 106402616 805 -781 97680 -47380 -32573 -470250
106405 106406396 48 -805 96459 -47418 -31991 -470301
106409 106410172 488 -903 97412 -47492 -32012 -470454
106413 106413932 830 -1074 97534 -47878 -32433 -470485
106418 106418472 756 -561 98071 -47500 -32714 -470339
106421 106422224 366 -1025 96655 -47714 -32263 -470279
106425 106425996 561 -903 97460 -47841 -32305 -470206
106429 106429772 903 -341 97436 -47360 -32800 -470230
106432 106433520 488 -805 97558 -47409 -32625 -470125
106436 106437292 927 -952 97216 -47483 -33141 -470168
106440 106441060 488 -927 97753 -47596 -32940 -470123
106444 106444816 390 -756 97290 -47559 -32820 -469986
106447 106448576 561 -634 98291 -47278 -32743 -470011
106452 106453092 683 -561 97753 -47112 -32661 -469974
106456 106456852 878 -952 97070 -47200 -32983 -470054
106460 106460628 1098 -903 97875 -47288 -33593 -470064
106464 106464420 952 -1098 97436 -47676 -34034 -470211
106467 106468208 244 -830 97265 -47714 -33602 -470224
106471 106471980 1123 -366 96606 -47357 -34361 -470224
106475 106475752 97 -952 96899 -47488 -33684 -470193
106478 106479504 317 -341 97216 -46901 -33506 -470120
106482 106483248 610 -1196 97582 -47501 -33466 -470109
106486 106487776 415 -830 97851 -47369 -33292 -470195
106490 106491544 585 -732 96630 -47346 -33365 -470214
106494 106495304 244 -561 96337 -47140 -32967 -470245
106498 106499052 805 -781 96752 -47155 -33112 -470190
106502 106502832 488 -1538 98071 -48131 -33077 -470234
106506 106506608 170 -952 97290 -48286 -32538 -470129
106510 106510384 390 -805 97827 -48252 -32374 -470047
106513 106514160 317 -537 97509 -48010 -32162 -469999
106517 106517908 878 -1220 97290 -48444 -32632 -469899
106521 106521696 610 -1147 96411 -48835 -32702 -469863
106535 106536104 585 -854 97509 -48492 -33061 -469951
106539 106539876 -122 -1074 96948 -48757 -32177 -469982
106543 106543676 1049 -1000 97998 -49032 -32788 -469964
106547 106547476 97 -1098 97900 -49378 -32185 -469896
106550 106551244 292 -634 97534 -49204 -31877 -469885
106554 106555012 -219 -390 96679 -48565 -30976 -469940
106558 106558772 610 -708 97607 -48449 -31111 -469909
106561 106562540 683 -781 97241 -48330 -31229 -469891
106565 106566312 1000 -805 97778 -48399 -31702 -469934
106572 106573832 537 -854 97949 -48392 -31419 -469904
106576 106577604 366 -195 97216 -47560 -31303 -469971
106580 106581352 292 -805 96069 -47626 -31017 -470155
106585 106585128 1049 -1171 98193 -48042 -31673 -470174
106588 106588936 585 -903 97436 -48295 -31738 -470254
106592 106592708 341 -1147 96704 -48654 -31470 -470255
106596 106596484 585 -1074 96850 -49002 -31576 -470196
106599 106600272 756 -708 97949 -48960 -31737 -470227
106603 106604028 415 -805 98120 -48977 -31540 -470218
106607 106607808 683 -1074 97216 -49184 -31663 -470228
106613 106614252 48 -1269 96997 -49703 -30984 -470055
106617 106618036 634 -1049 97412 -50007 -31006 -470069
106620 106621812 659 -708 97607 -49938 -31148 -469978
106625 106625580 -73 -976 97241 -50151 -30549 -469814
106629 106629348 854 -976 97753 -50353 -30951 -469920
106632 106633120 708 -610 96777 -50004 -31083 -469872
106636 106636884 292 -878 98608 -49967 -30733 -469812
106640 106640656 756 -952 96997 -50148 -31163 -469977
106643 106644416 512 -1220 96899 -50620 -31083 -469990
106648 106648944 805 -1074 97656 -51043 -31326 -470009
106652 106652724 561 -830 97192 -51070 -31417 -469899
106655 106656496 1000 -634 97680 -50825 -31996 -469863
106659 106660288 1147 -1196 96191 -51127 -32774 -469869
106663 106664084 805 -683 97656 -50948 -32940 -469961
106667 106667848 756 -1049 97387 -51181 -33191 -470007
106671 106671636 195 -561 97680 -50831 -32745 -470095
106675 106675408 219 -1196 96801 -51376 -32244 -470091
106678 106679176 317 -390 97509 -50749 -32035 -470256
106683 106683680 1098 -1000 97070 -50935 -32742 -470196
106686 106687480 903 -805 96899 -50787 -33050 -470184
106690 106691260 463 -1293 96777 -51353 -33025 -470191
106694 106695032 878 -732 97900 -51140 -33490 -470137
106698 106698800 1049 -537 97875 -50680 -34051 -470206
106701 106702572 610 -854 97973 -50793 -33907 -470249
106705 106706348 634 -170 97973 -49983 -33974 -470195
106710 106710132 463 -1000 97265 -50224 -33957 -470220
106713 106713908 756 -1293 97949 -50795 -34184 -470202
106717 106717692 927 -878 97387 -50823 -34688 -470111
106721 106722212 439 -708 96972 -50609 -34576 -470142
106725 106725972 585 -708 97485 -50437 -34535 -470210
106729 106729740 878 -268 97363 -49642 -34818 -470234
106732 106733492 48 -1342 98193 -50260 -34217 -470161
106736 106737272 805 -585 97216 -50001 -34431 -470192
106740 106741036 878 -830 96533 -49961 -34802 -470110
106743 106744812 878 -1074 97216 -50090 -35193 -470102
106747 106748600 732 -488 97851 -49757 -35350 -470194
106752 106752356 878 -561 97460 -49418 -35607 -470018
106756 106756868 195 -537 97485 -48985 -35145 -470226
106760 106760624 732 -1074 96899 -49304 -35311 -470254
106764 106764412 805 -854 97192 -49286 -35507 -470346
106767 106768188 1196 -634 97436 -49049 -36207 -470450
106771 106771972 927 -878 97290 -49230 -36564 -470524
106775 106775748 439 -1049 97119 -49436 -36358 -470529
106778 106779520 732 -976 97363 -49694 -36579 -470548
106782 106783292 0 -341 97998 -49164 -35760 -470572
106786 106786892 903 -708 97509 -49018 -36068 -470540
106789 106790664 561 -854 96582 -49131 -35872 -470699
106795 106795180 732 -659 97607 -49066 -36040 -470647
106798 106798936 48 -732 98046 -49003 -35409 -470544
106802 106802704 732 -854 96923 -49034 -35511 -470576
106806 106806472 1196 -317 97094 -48488 -36300 -470568
106809 106810244 781 -292 97070 -47943 -36457 -470599
106813 106814012 512 -976 96899 -48129 -36229 -470447
106817 106817772 73 -756 97314 -48126 -35602 -470383
106820 106821524 708 -1025 97607 -48351 -35581 -470402
106824 106825304 585 -781 97363 -48305 -35543 -470354
106839 106839616 317 -1074 97680 -48292 -34946 -470403
106843 106843392 708 -634 97534 -48033 -35090 -470417
106846 106847148 1074 -1196 97607 -48454 -35617 -470485
106850 106850944 195 -1171 97216 -48946 -35012 -470571
106854 106854724 805 -659 97021 -48805 -35279 -470612
106857 106858488 1293 -1074 97436 -49174 -36043 -470645
106861 106862284 805 -903 96752 -49119 -36171 -470646
106865 106866056 1489 -561 97021 -48864 -37254 -470706
106869 106869824 1049 -463 97949 -48439 -37784 -470802
106876 106877308 170 -659 97167 -48230 -37287 -470675
106881 106881076 24 -1049 96679 -48453 -36617 -470607
106884 106884844 415 -976 97875 -48808 -36326 -470651
106888 106888604 756 -561 96240 -48493 -36489 -470674
106892 106892376 830 -927 98559 -48522 -36744 -470679
106895 106896160 512 -1171 97045 -48901 -36606 -470625
106899 106899944 537 -683 98168 -48736 -36529 -470575
106903 106903704 708 -1049 97875 -48924 -36648 -470516
106906 106907484 878 -561 97265 -48609 -36917 -470511
106910 106911260 708 -854 98486 -48740 -36838 -470511
106915 106916724 122 -952 97338 -48963 -36136 -470497
106919 106920500 390 -830 96850 -49051 -35752 -470292
106924 106924260 1049 -610 97387 -48825 -36243 -470315
106927 106928036 634 -1123 98193 -49203 -36190 -470273
106931 106931820 512 -1293 97582 -49811 -36161 -470231
106935 106935600 1000 -805 97070 -49817 -36572 -470332
106938 106939384 -24 -610 97460 -49522 -35742 -470301
106942 106943152 170 -854 97607 -49578 -35117 -470338
106946 106946924 512 -854 98095 -49658 -34984 -470352
106950 106951440 97 -976 96997 -49963 -34523 -470493
106954 106955200 390 -830 97534 -50003 -34280 -470540
106958 106958972 390 -1098 97436 -50324 -34096 -470508
106961 106962756 341 -1074 96826 -50614 -33792 -470381
106966 106966532 170 -976 97534 -50769 -33242 -470479
106970 106970300 537 -1098 97753 -51110 -33226 -470521
106973 106974084 878 -781 96118 -50967 -33463 -470412
106977 106977860 195 -610 96923 -50755 -33057 -470339
106981 106981632 24 -878 97338 -50775 -32423 -470317
106984 106985400 561 -1196 96850 -51099 -32340 -470299
106989 106989932 219 -1196 97534 -51347 -31858 -470269
106993 106993712 366 -781 97753 -51197 -31572 -470311
106996 106997476 512 -976 97778 -51301 -31478 -470299
107000 107001240 537 -585 97363 -51002 -31559 -470231
107004 107005004 537 -1000 97827 -51223 -31528 -470181
107008 107008788 366 -1049 97460 -51375 -31197 -470136
107012 107012564 1123 -805 97753 -51324 -31855 -470123
107016 107016368 1171 -268 97680 -50704 -32631 -470078
107019 107020144 439 -756 97363 -50499 -32624 -470054
107024 107024660 537 -1245 96508 -51023 -32666 -470085
107027 107028440 634 -781 98095 -50976 -32799 -470141
107031 107032212 927 -1049 97436 -51295 -33201 -470313
107035 107035992 561 -1049 97363 -51537 -33240 -470373
107039 107039780 610 -976 97802 -51607 -33243 -470483
107042 107043552 805 -878 97509 -51795 -33677 -470496
107046 107047328 292 -463 97387 -51275 -33378 -470524
107051 107051084 781 -1245 97143 -51707 -33497 -470463
107054 107054872 659 -976 98266 -51862 -33628 -470458
107058 107058656 781 -854 97949 -51718 -33872 -470500
107062 107063176 463 -854 97290 -51644 -33642 -470519
107066 107066936 952 -732 96972 -51514 -34019 -470525
107070 107070704 366 -1367 98486 -52040 -33861 -470622
107073 107074456 415 -1171 97412 -52415 -33908 -470513
107077 107078232 976 -830 97753 -52264 -34503 -470404
107081 107082004 683 -805 98071 -52161 -34506 -470304
107084 107085772 805 -976 97485 -52178 -34772 -470280
107088 107089548 1049 -561 97045 -51745 -35301 -470195
107092 107093328 390 -1000 96997 -51852 -35065 -470141
107097 107097856 732 -805 97582 -51757 -35317 -470050
107101 107101636 878 -805 97534 -51728 -35676 -470128
107105 107105412 48 -830 97509 -51630 -34906 -470028
107108 107109180 1123 -952 97290 -51792 -35563 -469907
107112 107112968 1098 -781 97021 -51721 -36035 -469971
107116 107116756 122 -415 96972 -51147 -35443 -469981
107119 107120524 292 -1000 98681 -51324 -35101 -469976
107123 107124308 537 -708 97363 -51174 -34992 -469970
107127 107128068 683 -1196 96606 -51629 -35114 -469971
107143 107143464 634 -927 97705 -51548 -35048 -469973
107146 107147232 512 -537 97412 -51121 -34893 -469925
107150 107150980 610 -1123 97167 -51407 -34864 -469871
107154 107154768 927 -1098 97070 -51569 -35241 -469885
107158 107158552 1074 -805 96582 -51522 -35871 -469881
107161 107162348 463 -244 97070 -50769 -35603 -469876
107165 107166100 634 -463 96972 -50254 -35629 -469890
107169 107169868 1245 -756 97680 -50183 -36312 -469918
107172 107173652 878 -708 97534 -49755 -36568 -469815
107176 107177416 366 -878 98266 -49775 -36242 -469828
107184 107184908 708 -585 97778 -49521 -36310 -469882
107188 107188672 366 -1171 96459 -49956 -36008 -469956
107192 107192440 732 -976 97363 -50161 -36071 -469879
107195 107196208 537 -585 97680 -49823 -36084 -469861
107199 107199964 1269 -1562 97631 -50635 -36917 -469949
107203 107203764 805 -830 97045 -50698 -37114 -470032
107206 107207544 537 -1171 97949 -51152 -36979 -470032
107210 107211324 659 -1171 98071 -51464 -37084 -470100
107214 107215108 415 -634 96972 -51294 -36790 -470050
107219 107220732 732 -634 97436 -51153 -37193 -470222
107224 107224500 48 -1220 98315 -51568 -36517 -470140
107228 107228288 976 -805 98901 -51453 -36961 -470274
107231 107232068 952 -805 97021 -51455 -37415 -470317
107235 107235848 1220 -805 97070 -51275 -38132 -470258
107239 107239636 537 -341 97631 -50652 -37966 -470181
107242 107243380 463 -1098 97949 -50872 -37788 -470304
107246 107247156 317 -903 97216 -50885 -37397 -470219
107250 107250924 952 24 97241 -49935 -37702 -470279
107253 107254664 244 -805 97363 -49898 -37304 -470170
107258 107259184 781 -1171 98022 -50229 -37384 -470115
107261 107262964 1123 -1196 98046 -50667 -37939 -470134
107266 107266780 561 -878 97778 -50781 -37871 -470056
107270 107270552 537 -97 97338 -49850 -37704 -469988
107274 107274304 610 -268 97265 -49171 -37738 -469983
107277 107278072 268 -805 97729 -49211 -37265 -470070
107281 107281836 488 -366 96313 -48664 -37049 -470001
107285 107285584 488 -1074 96313 -48921 -36932 -469956
107288 107289368 708 -1147 97143 -49417 -36953 -470146
107293 107293900 927 -732 97485 -49345 -37451 -470251
107296 107297652 390 -537 97363 -49046 -37266 -470215
107300 107301400 1098 -732 97192 -48930 -37876 -470197
107304 107305188 708 -1000 97753 -49138 -37988 -470143
107308 107308968 585 0 97582 -48139 -37835 -470216
107312 107312572 561 -268 96582 -47559 -37679 -470254
107316 107316328 488 -1440 97265 -48342 -37467 -470304
107319 107320100 97 -732 97753 -48367 -36757 -470268
107323 107323852 537 -268 97485 -47695 -36656 -470319
107327 107327612 292 -1123 97045 -48104 -36293 -470297
107331 107332148 805 -1293 97094 -48626 -36566 -470397
107335 107335932 708 -952 97558 -48809 -36682 -470352
107338 107339700 634 -708 97729 -48617 -36797 -470407
107342 107343460 488 -366 98022 -48218 -36545 -470316
107346 107347196 610 -463 98437 -47799 -36455 -470248
107350 107350956 390 -1269 97705 -48237 -36352 -470135
107354 107354724 341 -585 97607 -48028 -35982 -470166
107358 107358472 585 -244 97338 -47311 -36021 -470107
107361 107362228 610 -1489 97265 -48145 -35915 -470144
107366 107366756 634 -537 98315 -47936 -35760 -470114
107370 107370508 683 -512 99218 -47651 -35715 -470179
107373 107374256 512 -903 97607 -47766 -35624 -470290
107377 107378024 976 -830 97900 -47667 -36043 -470157
107381 107381800 1171 -537 96899 -47310 -36737 -470263
107384 107385580 659 -708 96801 -47227 -36713 -470380
107388 107389340 659 -1635 96899 -48290 -36765 -470444
107393 107393128 -219 -1318 97119 -48957 -35809 -470468
107396 107396924 268 -1416 98291 -49660 -35343 -470468
107401 107401444 952 -219 97680 -48957 -35779 -470469
107404 107405212 708 -219 97412 -48339 -35882 -470604
107408 107408972 878 -512 97143 -47985 -36299 -470593
107412 107412736 537 -317 96289 -47467 -36201 -470529
107415 107416484 1416 -73 97631 -46689 -36998 -470566
107419 107420252 732 -1074 97656 -47042 -37234 -470451
107423 107424024 341 -415 98535 -46683 -36813 -470548
107426 107427760 1416 -1000 98095 -46903 -37757 -470438
107430 107431572 1147 -1196 97412 -47362 -38456 -470372
107435 107435372 585 -634 96752 -47222 -38276 -470434
107450 107450688 659 -854 97924 -47430 -38020 -470522
107453 107454456 561 -952 97534 -47547 -37926 -470527
107457 107458228 415 -292 98193 -46796 -37637 -470552
107461 107461984 366 -488 96874 -46457 -37351 -470566
107464 107465720 1000 -683 96289 -46374 -37792 -470548
107468 107469512 488 -1367 98046 -47011 -37640 -470695
107472 107473276 219 -1049 97460 -47333 -37134 -470664
107476 107477060 292 -1318 97705 -47970 -36816 -470768
107480 107480840 585 -708 98193 -47862 -36748 -470830
107488 107488324 317 -634 97753 -47830 -36233 -471152
107491 107492072 0 -1293 96874 -48334 -35667 -471177
107495 107495692 1049 -732 96923 -48306 -36053 -471177
107498 107499460 390 -878 98315 -48486 -35826 -471135
107502 107503224 1025 -903 97509 -48544 -36252 -471044
107506 107507008 463 -1196 97412 -49004 -36159 -471109
107509 107510776 390 -878 97143 -49124 -35926 -471000
107513 107514548 756 -659 96435 -48765 -36050 -470976
107517 107518316 805 -1416 96850 -49324 -36303 -470995
107522 107522096 1098 -659 97729 -49187 -36988 -470986
107528 107528352 341 -878 98388 -49131 -37117 -470960
107531 107532120 537 170 97729 -47932 -36978 -470979
107535 107535872 1147 -488 97338 -47482 -37560 -470897
107539 107539640 244 -610 96923 -47404 -37086 -470902
107542 107543400 585 -805 96850 -47464 -37118 -471000
107546 107547176 756 -1342 97045 -48048 -37254 -470964
107550 107550952 1196 -830 97216 -48094 -37966 -470992
107553 107554736 781 -952 97949 -48236 -38123 -471042
107557 107558516 634 -292 97851 -47670 -38167 -471055
107563 107563028 390 -878 95678 -47868 -37770 -470933
107566 107566780 390 -878 96752 -47894 -37397 -471068
107570 107570540 1098 -805 97802 -48047 -37938 -471051
107574 107574332 439 -756 99145 -47931 -37707 -471051
107577 107578096 463 -366 97949 -47330 -37540 -471168
107581 107581832 585 -390 97973 -46905 -37392 -471232
107585 107585584 878 -97 97045 -46074 -37809 -471224
107588 107589352 1074 -48 95922 -45261 -38202 -471255
107592 107593132 683 -927 96435 -45464 -38167 -471301
107596 107596900 512 -1000 97729 -45801 -37975 -471178
107600 107601432 830 -659 98779 -45634 -38259 -471148
107604 107605204 439 -903 97265 -45811 -38087 -471100
107608 107608964 488 -927 96606 -45907 -37913 -471174
107612 107612732 683 -292 96435 -45297 -38077 -471205
107616 107616488 488 -1269 97582 -45883 -37869 -471146
107619 107620260 317 -830 97558 -46032 -37457 -471061
107623 107624028 781 -1220 98193 -46513 -37449 -470916
107627 107627808 830 -756 97705 -46436 -37582 -470934
107630 107631568 488 -732 96606 -46503 -37466 -470752
107635 107636076 219 -781 96435 -46527 -36998 -470576
107639 107639852 268 -1123 95898 -47025 -36649 -470604
107642 107643632 585 -488 97265 -46590 -36537 -470635
107646 107647380 952 -805 98071 -46631 -36772 -470745
107651 107651160 805 -1220 98706 -47117 -36956 -470787
107654 107654960 195 -952 98291 -47286 -36543 -470879
107658 107658728 1196 -537 97705 -47061 -37128 -470962
107662 107662496 878 -390 96728 -46611 -37361 -470972
107665 107666256 878 -537 97021 -46267 -37715 -470997
107670 107670776 610 -1074 97265 -46753 -37718 -471004
107673 107674544 756 -415 97656 -46193 -37741 -471017
107677 107678296 1025 -830 97875 -46183 -38261 -470926
107681 107682084 488 -634 97607 -46046 -38058 -470821
107684 107685836 341 -170 96997 -45287 -37632 -470877
107688 107689584 463 -561 96972 -45106 -37446 -470733
107693 107693340 585 -732 96459 -45062 -37435 -470614
107696 107697096 952 -561 98315 -44973 -37680 -470511
107700 107700852 73 -732 97827 -44861 -37116 -470481
107704 107704604 244 -463 97729 -44599 -36662 -470363
107708 107709100 878 -585 97094 -44333 -37045 -470272
107712 107712868 585 -634 96826 -44329 -36977 -470268
107716 107716628 1171 -927 96826 -44591 -37568 -470236
107719 107720416 1049 -1098 97582 -44919 -37938 -470213
107723 107724212 292 -1269 97045 -45508 -37541 -470204
107727 107727996 732 -732 97875 -45425 -37556 -470182
107730 107731756 830 -634 97534 -45197 -37828 -470274
107735 107735520 805 -756 97265 -45213 -38005 -470256
107739 107739304 1171 -1196 96337 -45715 -38596 -470390
107753 107754124 903 -585 97607 -45517 -39097 -470919
107757 107757884 390 -781 96777 -45542 -38789 -471011
107760 107761648 683 -1147 96997 -46047 -38755 -471052
107764 107765432 708 -341 97241 -45608 -38668 -471108
107768 107769176 97 -1074 97875 -45932 -38042 -471099
107772 107772956 610 -1464 97363 -46793 -37957 -471118
107776 107776732 634 -439 97753 -46397 -37901 -471127
107780 107780492 1000 -1318 97119 -47097 -38429 -471077
107784 107784288 537 -952 96044 -47301 -38254 -471004
107787 107788060 634 -683 97192 -47163 -38234 -470980
107795 107795564 585 -878 97460 -47162 -38195 -471003
107798 107799340 170 -1098 98120 -47474 -37681 -470833
107802 107803120 830 -1245 96972 -47992 -37874 -470861
107806 107806912 341 -1391 97363 -48761 -37468 -470925
107809 107810672 -317 -439 97167 -48294 -36311 -470859
107813 107814440 1098 -1220 96850 -48780 -36887 -470792
107817 107818248 390 -610 97729 -48468 -36503 -470799
107821 107821992 170 -683 97680 -48374 -36006 -470690
107825 107825748 634 -854 97216 -48373 -36043 -470721
107831 107832192 805 -1000 97607 -48467 -36308 -470750
107835 107835980 683 -952 96411 -48649 -36349 -470781
107839 107839756 537 -390 97656 -48140 -36277 -470690
107842 107843512 683 -561 97363 -47804 -36257 -470666
107846 107847268 415 -170 97534 -47027 -36160 -470703
107850 107851028 903 -732 98266 -46910 -36470 -470631
107853 107854788 756 -512 97631 -46545 -36751 -470674
107857 107858536 1049 -683 96337 -46405 -37238 -470650
107862 107862320 463 -805 97387 -46469 -36988 -470810
107866 107866824 415 -805 97802 -46613 -36753 -470688
107870 107870592 634 -610 97070 -46326 -36756 -470716
107874 107874360 537 -415 97631 -45865 -36635 -470767
107877 107878120 927 -854 98291 -45976 -37035 -470695
107881 107881892 366 -415 97705 -45571 -36631 -470691
107885 107885632 805 -805 96606 -45608 -36884 -470577
107888 107889424 683 -683 97216 -45563 -36763 -470510
107892 107893188 561 -927 97387 -45785 -36767 -470479
107896 107896952 219 -927 97045 -46042 -36410 -470411
107899 107900716 292 -830 96118 -46059 -36058 -470362
107905 107905236 585 -1074 97460 -46381 -36134 -470256
107908 107909020 585 -1220 96997 -46945 -36016 -470288
107912 107912796 -317 -1098 97436 -47323 -34842 -470319
107916 107916584 610 -830 97338 -47445 -34861 -470283
107919 107920356 830 -1171 97192 -47816 -35104 -470283
107923 107924144 1171 -781 97387 -47631 -35832 -470308
107927 107927932 537 -1098 97753 -47968 -35800 -470236
107931 107931712 317 -708 97509 -47846 -35442 -470264
107934 107935476 927 -1220 96948 -48214 -35922 -470356
107939 107940008 781 -1074 97216 -48560 -36163 -470448
107942 107943796 463 -366 97680 -47996 -35975 -470461
107947 107947556 659 -659 98486 -47798 -35981 -470454
107951 107951328 708 -1025 97875 -47998 -36083 -470363
107954 107955104 292 -732 96704 -47860 -35831 -470364
107958 107958860 463 -1391 98803 -48590 -35637 -470297
107962 107962632 683 -830 97192 -48621 -35701 -470298
107965 107966408 561 -781 97070 -48459 -35653 -470262
107969 107970180 903 -317 97875 -47797 -36006 -470281
107973 107973944 512 -1000 97949 -48000 -35857 -470217
107977 107978468 1000 -878 96923 -48063 -36356 -470108
107981 107982260 683 -830 98168 -48180 -36460 -470159
107985 107986032 146 -683 97216 -48014 -35807 -470086
107988 107989800 170 -927 96874 -48146 -35311 -470194
107993 107993576 146 -756 97485 -48087 -34744 -470107
107997 107997344 634 -317 97582 -47464 -34792 -470094
108000 108001104 219 -463 97729 -47096 -34410 -469991
108004 108004856 732 -732 97705 -46992 -34668 -469992
108008 108008620 488 -341 97070 -46349 -34495 -470038
108012 108013112 1000 -1416 96923 -47270 -34932 -470222
108016 108016904 683 -1171 98071 -47727 -34976 -470314
108019 108020680 634 -1171 97070 -48109 -34987 -470394
108023 108024460 -48 -1000 96606 -48330 -34304 -470529
108027 108028252 634 -756 96826 -48346 -34430 -470562
108032 108032028 1074 -585 97436 -48153 -34905 -470458
108035 108035796 1049 -952 97558 -48269 -35461 -470569
108039 108039580 805 -1269 97680 -48807 -35704 -470574
108043 108043372 268 -1025 98535 -49007 -35259 -470630
108057 108058104 1147 -1220 96704 -49751 -35819 -470846
108061 108061896 683 -1049 97705 -49971 -35875 -470782
108064 108065672 341 -756 97338 -49930 -35586 -470740
108068 108069428 1074 -415 97387 -49427 -36207 -470802
108072 108073204 463 -903 97851 -49433 -36041 -470644
108076 108076956 439 -756 97509 -49257 -36001 -470663
108080 108080704 219 -561 97363 -49013 -35596 -470480
108084 108084468 756 -659 97485 -48786 -35781 -470467
108087 108088228 927 -634 97778 -48568 -36215 -470486
108091 108092000 732 -732 97021 -48374 -36334 -470493
108098 108099476 415 -610 97314 -48086 -36332 -470302
108102 108103236 1074 -1123 97460 -48494 -36721 -470394
108106 108107032 1293 -634 97241 -48247 -37523 -470459
108109 108110808 854 -976 97558 -48466 -37821 -470429
108113 108114588 488 -1000 97192 -48697 -37631 -470399
108118 108118368 170 -1147 98193 -49165 -37068 -470485
108122 108122152 1000 -659 97753 -48808 -37592 -470522
108125 108125932 781 -683 97387 -48644 -37786 -470633
108129 108129704 1342 -1049 96606 -48931 -38648 -470578
108134 108135188 756 -830 97314 -48947 -38732 -470472
108138 108138968 170 -366 97973 -48429 -38227 -470400
108142 108142720 634 -781 96850 -48408 -38211 -470473
108145 108146500 366 -952 97241 -48390 -37869 -470450
108149 108150268 1147 -488 97900 -48000 -38452 -470491
108153 108154044 1025 -708 97680 -47939 -38933 -470510
108156 108157824 976 -830 97387 -48004 -39210 -470488
108161 108161604 -122 -805 96533 -48068 -38236 -470434
108165 108165388 561 -830 97949 -48115 -38085 -470411
108168 108169156 512 -610 97143 -47946 -37889 -470375
108173 108173664 317 -1025 97460 -48236 -37436 -470407
108177 108177436 170 -805 97192 -48285 -36864 -470371
108180 108181208 146 -732 97387 -48177 -36218 -470341
108184 108184976 854 -1293 97680 -48737 -36489 -470350
108188 108188772 561 -439 97509 -48271 -36408 -470433
108191 108192536 488 -1049 97192 -48491 -36234 -470465
108195 108196316 1049 -1171 97143 -48896 -36826 -470438
108199 108200112 683 -561 97314 -48648 -36897 -470438
108203 108203880 854 -683 97924 -48589 -37237 -470393
108208 108208400 854 -683 96801 -48632 -37626 -470376
108211 108212164 732 -976 97558 -48898 -37629 -470449
108215 108215928 1049 -1147 97875 -49229 -38174 -470493
108219 108219728 659 -341 97607 -48611 -38200 -470470
108222 108223484 976 -708 97094 -48467 -38609 -470444
108226 108227264 610 -1293 97070 -49104 -38470 -470469
108230 108231044 952 -1562 97705 -50023 -38833 -470497
108234 108234840 927 -976 97143 -50185 -39121 -470419
108237 108238620 659 -1489 97460 -50880 -39194 -470591
108242 108243160 756 -1342 97363 -51510 -39406 -470610
108246 108246928 1049 -781 97021 -51442 -39823 -470725
108250 108250724 634 -708 98120 -51343 -39586 -470659
108254 108254480 292 -537 97558 -51052 -39104 -470595
108257 108258224 -219 -756 100146 -50982 -38026 -470712
108261 108262008 463 -537 100561 -50642 -37851 -470725
108265 108265776 1049 -48 97314 -49607 -38381 -470702
108268 108269556 1635 -488 94360 -49178 -39606 -470611
108272 108273336 1098 -1708 92968 -50326 -40027 -470600
108276 108277140 292 -3002 95605 -52977 -39468 -470596
108280 108281656 -73 -1708 98681 -53892 -38519 -470688
108284 108285448 561 -317 100268 -53178 -38397 -470679
108289 108289224 1049 170 98095 -51853 -38987 -470607
108292 108292984 585 -97 96655 -50892 -38887 -470589
108296 108296752 903 -146 95410 -50249 -39047 -470553
108300 108300512 732 -390 97290 -49863 -39006 -470659
108303 108304256 463 -634 99072 -49571 -38801 -470604
108307 108308012 1245 -585 98364 -49187 -39669 -470623
108311 108311788 805 -1049 98120 -49390 -39958 -470629
108315 108316316 756 -878 97021 -49420 -39997 -470462
108319 108320092 390 -1391 95361 -50109 -39574 -470494
108323 108323868 927 -659 95532 -49903 -39920 -470463
108326 108327640 1171 -610 97705 -49707 -40463 -470311
108331 108331420 634 -1025 98925 -49926 -40314 -470232
108335 108335200 48 -927 99999 -49965 -39628 -470214
108338 108338976 24 -170 99877 -49223 -39010 -470160
108342 108342736 805 48 97363 -47994 -39279 -470028
108346 108346492 1220 -366 95336 -47498 -39882 -469960
108349 108350260 756 -1171 95263 -48019 -39872 -469972
108365 108366064 -122 -781 97216 -48076 -39210 -469220
108368 108369832 781 -903 96435 -48195 -39298 -469190
108372 108373608 195 -659 96899 -48088 -38671 -469160
108377 108377372 463 219 97875 -47009 -38331 -469097
108380 108381108 48 -732 98681 -47005 -37666 -469158
108384 108384864 1098 -927 98461 -47057 -38182 -469129
108388 108388652 1123 -1342 97827 -47699 -38807 -469106
108391 108392452 1049 -1171 96337 -48146 -39235 -469125
108395 108396252 805 -1025 94946 -48363 -39407 -469034
108403 108403764 463 -756 97241 -48426 -39003 -469164
108406 108407508 292 -1977 99365 -49746 -38379 -469274
108410 108411280 170 -48 99414 -48764 -37886 -469302
108414 108415040 48 48 99072 -47752 -37104 -469327
108418 108418804 0 -292 96923 -47109 -36353 -469310
108422 108422416 1123 -1196 96166 -47692 -37020 -469351
108425 108426208 1147 -1318 95581 -48452 -37562 -469340
108429 108430004 24 -1074 97436 -48802 -36854 -469371
108433 108433776 781 -903 99047 -48823 -37176 -469358
108438 108439424 1367 -1123 98022 -48914 -38071 -469351
108442 108443220 976 -1342 96728 -49474 -38452 -469291
108446 108447008 1171 -805 96826 -49417 -39103 -469282
108449 108450796 634 -268 97607 -48704 -39045 -469307
108453 108454560 976 -708 98193 -48576 -39418 -469369
108457 108458336 97 -976 98095 -48729 -38801 -469412
108462 108462104 366 -1391 98364 -49368 -38534 -469385
108465 108465876 1147 -927 97460 -49305 -39211 -469453
108469 108469656 610 -1562 96728 -50189 -39148 -469504
108473 108473448 366 -1318 96289 -50787 -38780 -469564
108477 108477972 366 -1098 98876 -51028 -38408 -469436
108481 108481748 1025 -1416 98559 -51678 -38838 -469437
108484 108485544 878 -1074 98510 -51871 -38985 -469364
108488 108489332 292 -732 99023 -51611 -38703 -469310
108492 108493088 537 537 96874 -49873 -38584 -469301
108495 108496844 952 -292 96289 -49202 -38841 -469290
108499 108500608 854 -952 95727 -49428 -38993 -469436
108504 108504380 854 -781 97778 -49383 -39261 -469441
108507 108508152 610 -756 98901 -49350 -39069 -469473
108512 108512664 366 -1196 97753 -49790 -38642 -469413
108516 108516428 732 -732 97582 -49571 -38790 -469432
108519 108520188 927 -805 96313 -49671 -39049 -469304
108523 108523956 634 -781 96313 -49658 -38976 -469328
108527 108527728 170 -415 97412 -49262 -38462 -469264
108530 108531488 561 -1245 98681 -49646 -38228 -469198
108534 108535268 439 -1342 98193 -50276 -38028 -469230
108538 108539044 927 -781 98095 -50175 -38389 -469332
108541 108542824 878 -512 97167 -49756 -38766 -469195
108546 108546600 366 24 97338 -48710 -38454 -469330
108550 108551084 512 -976 96484 -48807 -38375 -469245
108554 108554844 634 -756 97485 -48866 -38255 -469154
108558 108558608 415 -976 97973 -49086 -37950 -469169
108561 108562368 561 -1318 98071 -49491 -37862 -469029
108565 108566144 976 -415 96655 -48893 -38349 -469164
108569 108569904 683 -97 96191 -48033 -38399 -469100
108572 108573664 244 -781 96118 -48018 -38036 -469169
108576 108577428 317 -1342 97387 -48717 -37616 -469280
108580 108581196 683 -878 97656 -48735 -37672 -469148
108584 108585716 1025 -732 98437 -48548 -38131 -469255
108589 108589492 708 -1000 98022 -48838 -38252 -469256
108593 108593276 756 -1220 96777 -49339 -38385 -469302
108596 108597064 830 -1855 95849 -50560 -38463 -469376
108600 108600856 878 -781 97290 -50421 -38722 -469395
108604 108604636 1098 -927 97192 -50575 -39276 -469290
108607 108608420 366 -903 97680 -50721 -38911 -469187
108611 108612176 585 -1074 98461 -50809 -38877 -469279
108615 108615952 488 -708 97558 -50594 -38747 -469193
108618 108619700 952 -1562 96899 -51449 -39167 -469145
108623 108624244 756 -1293 97045 -51914 -39202 -469182
108627 108628020 683 -1171 97387 -52173 -39165 -469232
108631 108631800 585 -781 97290 -52123 -39177 -469080
108635 108635568 585 -1391 97656 -52719 -39181 -469149
108639 108639344 537 -1196 97094 -53140 -39110 -469122
108642 108643128 927 -903 97045 -53074 -39528 -469251
108646 108646896 97 -561 96533 -52725 -38797 -469302
108650 108650648 512 -854 97436 -52722 -38532 -469371
108653 108654416 537 -1147 98120 -53045 -38397 -469323
108669 108670164 952 -1635 96606 -54051 -38650 -468739
108673 108673952 976 -1220 96972 -54492 -39040 -468801
108677 108677740 219 -195 96777 -53599 -38534 -468790
108681 108681504 659 -537 97363 -53196 -38497 -468813
108684 108685260 561 -1147 98413 -53482 -38258 -468795
108688 108689044 97 -659 98852 -53226 -37650 -468772
108692 108692804 512 -756 97265 -53041 -37508 -468937
108695 108696556 634 -561 96655 -52692 -37454 -468956
108699 108700328 268 -927 98217 -52758 -36908 -468883
108706 108707816 756 -463 97802 -52218 -37208 -468916
108710 108711572 659 -830 97827 -52088 -37245 -468893
108715 108715356 512 -317 97729 -51468 -37223 -468784
108718 108719096 683 -219 96777 -50714 -37214 -468793
108722 108722868 1049 -830 97290 -50757 -37799 -468763
108726 108726664 390 -781 97973 -50733 -37502 -468869
108730 108730428 463 -756 97290 -50508 -37287 -468787
108733 108734196 561 -1000 98168 -50668 -37319 -468745
108737 108737980 903 -952 97680 -50808 -37657 -468650
108741 108741760 903 -1293 97192 -51449 -37966 -468641
108747 108748020 708 -756 96704 -51615 -37754 -468605
108750 108751780 390 -537 96923 -51357 -37488 -468771
108754 108755532 -268 -708 97998 -51138 -36427 -468703
108759 108759304 708 -781 96289 -51158 -36499 -468699
108762 108763068 1098 -512 97216 -50687 -37114 -468559
108766 108766848 341 -830 97949 -50652 -36972 -468383
108770 108770612 366 -1074 98486 -50873 -36629 -468438
108773 108774388 1074 -659 97192 -50526 -37190 -468250
108777 108778180 610 -830 97265 -50681 -37120 -468165
108782 108782708 1318 -1000 97705 -50855 -37885 -468068
108785 108786516 634 -561 97656 -50385 -37797 -468032
108789 108790280 561 -1171 97290 -50812 -37633 -467950
108793 108794056 1049 -732 95947 -50735 -38235 -467855
108796 108797828 317 -927 97558 -50902 -37884 -467810
108801 108801592 488 -976 97827 -51023 -37569 -467774
108805 108805360 634 -634 98413 -50757 -37456 -467788
108808 108809120 1489 -537 98803 -50414 -38598 -467941
108812 108812884 561 -415 97338 -49818 -38406 -467918
108816 108816648 708 -1074 97827 -50077 -38398 -467845
108820 108821172 390 -48 97143 -49247 -38184 -467762
108824 108824932 1000 -1440 97143 -50017 -38572 -467840
108828 108828728 463 -903 98217 -50040 -38353 -467900
108831 108832492 488 -805 97436 -50012 -38115 -467919
108835 108836260 122 -585 97412 -49810 -37543 -468025
108839 108840024 512 -537 97680 -49455 -37400 -467993
108843 108843784 -195 -561 97290 -49166 -36411 -468032
108847 108847564 708 -488 97973 -48782 -36396 -467992
108851 108851316 24 -854 98364 -48812 -35735 -467928
108855 108855840 659 -1098 97851 -49185 -35653 -467792
108859 108859624 781 -1049 97485 -49454 -35874 -467783
108862 108863408 561 -512 97485 -49105 -35915 -467851
108866 108867160 659 -463 97045 -48691 -35859 -467858
108870 108870916 952 -830 97290 -48741 -36350 -467758
108873 108874684 -390 -634 97216 -48492 -35303 -467648
108877 108878460 854 -537 98168 -48061 -35675 -467673
108881 108882216 708 -488 97680 -47795 -35826 -467523
108884 108885960 781 -366 97045 -47289 -35990 -467608
108890 108890468 659 -561 97363 -47041 -35804 -467633
108894 108894228 390 -317 96630 -46474 -35576 -467711
108897 108897980 390 -585 97338 -46170 -35375 -467657
108901 108901736 122 -976 96948 -46380 -34782 -467703
108905 108905508 585 -1635 98120 -47422 -34701 -467694
108908 108909288 244 -292 97314 -46976 -34279 -467811
108912 108913040 805 -1171 96655 -47413 -34560 -467844
108916 108916844 439 -683 97534 -47328 -34446 -467803
108919 108920604 732 -341 97924 -46837 -34479 -467737
108923 108924356 927 -1318 97387 -47318 -34847 -467783
108928 108928876 439 -756 97680 -47321 -34871 -467814
108932 108932640 683 -903 97631 -47407 -34937 -467815
108936 108936412 830 -634 96777 -47328 -35273 -467879
108939 108940168 683 -927 97216 -47507 -35448 -467929
108943 108943936 -97 -1000 97753 -47833 -34603 -467954
108947 108947724 341 -415 97607 -47307 -34296 -467982
108950 108951468 170 -537 97729 -47094 -33820 -467934
108954 108955224 708 -683 97045 -46997 -34000 -467910
108958 108958988 952 -634 96704 -46766 -34329 -467787
108974 108974144 122 -1342 97680 -47460 -33486 -467179
108977 108977936 390 -1000 97045 -47731 -33281 -466967
108981 108981716 1000 0 97680 -46813 -33890 -467045
108984 108985328 -122 -854 96606 -46690 -33052 -466986
108988 108989116 683 -830 96777 -46723 -33239 -466913
108992 108992888 1269 -878 97631 -46902 -34003 -466969
108996 108996672 317 -1074 98022 -47140 -33669 -466974
108999 109000448 122 -341 97656 -46726 -33136 -467005
109003 109004204 415 -1391 97558 -47427 -32990 -466946
109007 109007984 830 -415 97143 -46929 -33338 -466910
109015 109015480 1513 -219 95629 -46353 -34216 -466850
109019 109019256 1025 -805 97949 -46370 -34760 -466874
109022 109023060 585 -659 97973 -46275 -34681 -466960
109026 109026816 1000 -268 97192 -45555 -35201 -466924
109030 109030600 73 -1147 97802 -46012 -34621 -467007
109033 109034376 781 -488 98193 -45693 -34843 -467056
109037 109038136 585 -952 96728 -46076 -34777 -466904
109041 109041904 512 -659 97119 -45943 -34653 -466763
109044 109045660 341 -537 97534 -45693 -34382 -466794
109051 109052068 830 -1586 98144 -46724 -34758 -466823
109054 109055860 805 -732 96997 -46634 -35033 -466770
109059 109059632 537 -1245 96411 -47094 -35039 -466661
109063 109063412 927 -1123 97094 -47505 -35310 -466629
109066 109067188 122 -659 97070 -47215 -34762 -466770
109070 109070952 1098 -1074 97485 -47517 -35355 -466686
109074 109074756 903 -927 97753 -47714 -35754 -466613
109077 109078524 390 -708 97802 -47640 -35508 -466668
109081 109082296 463 -512 98095 -47240 -35306 -466535
109085 109086044 952 -561 97021 -46857 -35727 -466485
109089 109090552 1025 -317 97314 -46403 -36121 -466467
109093 109094324 366 -1123 97265 -46781 -35841 -466449
109097 109098104 24 -976 97167 -47041 -35066 -466511
109101 109101864 683 -634 97705 -46840 -35307 -466518
109105 109105632 927 -195 97119 -46216 -35698 -466541
109109 109109412 292 -585 96630 -45889 -35261 -466482
109112 109113164 683 -683 96362 -45857 -35342 -466514
109116 109116928 244 -805 97021 -45920 -34827 -466514
109120 109120696 537 -1098 96679 -46269 -34711 -466501
109124 109125228 537 -903 97509 -46407 -34562 -466479
109128 109128992 73 -610 98364 -46062 -33980 -466617
109131 109132748 756 -952 97851 -46257 -34196 -466446
109135 109136524 195 -854 97290 -46268 -33703 -466447
109139 109140296 708 -634 96923 -46029 -33881 -466539
109143 109144052 585 -1098 98608 -46342 -33832 -466462
109147 109147840 439 -708 97631 -46373 -33584 -466554
109151 109151596 610 -97 97558 -45544 -33609 -466532
109155 109155364 512 -219 97509 -44821 -33542 -466578
109158 109159120 292 -1000 97021 -45174 -33106 -466536
109163 109163644 537 -463 96386 -44884 -33265 -466592
109166 109167396 659 -1123 96630 -45307 -33324 -466452
109170 109171184 927 -830 97460 -45432 -33791 -466489
109174 109174968 268 -903 97582 -45599 -33298 -466522
109177 109178728 317 -732 96533 -45522 -33012 -466449
109181 109182492 -73 -756 96777 -45458 -32336 -466511
109186 109186276 268 -561 97656 -45330 -32065 -466571
109189 109190016 537 -1049 96533 -45588 -32034 -466645
109193 109193800 708 -708 97924 -45530 -32314 -466707
109197 109198304 122 -561 97290 -45259 -31826 -466628
109201 109202072 610 -952 97070 -45539 -31985 -466525
109205 109205840 512 -708 96972 -45484 -31958 -466635
109208 109209596 952 -610 96679 -45299 -32333 -466544
109212 109213376 390 -927 97265 -45452 -32292 -466612
109216 109217132 537 -830 97485 -45421 -32352 -466640
109220 109220896 0 -1074 97753 -45782 -31631 -466677
109223 109224524 439 -268 96948 -45097 -31544 -466609
109228 109228284 1245 -854 98071 -45235 -32365 -466642
109232 109232816 708 -878 98120 -45396 -32309 -466681
109236 109236584 415 -634 97045 -45378 -32258 -466622
109240 109240336 292 -1049 97705 -45793 -31999 -466641
109243 109244116 1293 -903 97900 -45971 -32751 -466593
109247 109247900 292 -488 98608 -45558 -32456 -466589
109251 109251652 463 -878 97143 -45689 -32491 -466621
109254 109255428 927 -1074 97802 -46096 -32889 -466701
109258 109259208 634 -781 97192 -46069 -33036 -466633
109262 109262980 366 -634 98730 -45931 -32856 -466588
109265 109266732 244 -756 97534 -46005 -32542 -466405
109281 109281824 585 -488 97582 -45956 -32186 -466683
109285 109285572 585 -952 96191 -46092 -32252 -466637
109288 109289344 1342 -903 96972 -46281 -33202 -466644
109292 109293132 488 -512 97045 -45903 -33052 -466541
109296 109296876 927 -878 98022 -46058 -33374 -466532
109299 109300640 439 -1074 97851 -46343 -33110 -466551
109303 109304404 73 -317 98022 -45902 -32555 -466552
109307 109308164 1025 -903 97973 -45925 -33118 -466571
109310 109311940 561 -610 97753 -45687 -33155 -466381
109319 109319432 1000 -292 97949 -45015 -33480 -466297
109322 109323196 976 -805 97582 -45068 -33995 -466224
109326 109326980 268 -1000 97363 -45364 -33694 -466316
109330 109330760 952 -561 97705 -45036 -34144 -466326
109333 109334520 317 -732 97192 -45068 -33837 -466295
109337 109338284 708 -1245 97827 -45602 -33933 -466210
109341 109342064 390 -805 96630 -45656 -33683 -466270
109345 109345832 463 -683 97241 -45482 -33536 -466307
109348 109349588 488 -952 97949 -45730 -33499 -466204
109352 109353348 439 -1049 97045 -46099 -33291 -466247
109358 109358796 805 -1000 97045 -46309 -33730 -466446
109362 109362576 292 -830 97558 -46399 -33285 -466479
109366 109366340 -292 -1196 98022 -46795 -32279 -466512
109369 109370136 1586 -1171 97460 -47328 -33771 -466653
109373 109373944 732 -1025 97241 -47550 -33929 -466635
109377 109377720 390 -854 97167 -47626 -33731 -466603
109380 109381496 756 -830 97558 -47639 -33745 -466519
109384 109385268 610 -585 97412 -47484 -33803 -466428
109388 109389032 1049 -781 97338 -47460 -34329 -466401
109392 109393580 634 -708 96850 -47493 -34434 -466569
109396 109397336 878 -878 97485 -47494 -34752 -466466
109401 109401108 244 -537 98046 -47151 -34263 -466499
109404 109404860 854 -878 97363 -47184 -34682 -466542
109408 109408636 830 -659 96850 -47013 -34910 -466529
109412 109412404 195 -1391 98168 -47662 -34370 -466488
109415 109416192 585 -927 97753 -47792 -34372 -466373
109419 109419976 756 -1000 96630 -48025 -34540 -466374
109423 109423772 683 -366 97460 -47460 -34659 -466328
109426 109427528 1293 -1318 97045 -48051 -35425 -466256
109431 109432076 1000 -903 97680 -48181 -35851 -466092
109434 109435856 512 -1000 97998 -48426 -35665 -466098
109438 109439636 634 -830 97656 -48478 -35760 -466107
109443 109443420 415 -1000 96557 -48743 -35575 -465988
109447 109447196 634 -976 97216 -48898 -35650 -465916
109450 109450968 585 -634 98071 -48609 -35612 -466100
109454 109454728 512 -976 97387 -48734 -35402 -466031
109458 109458488 73 -585 96630 -48531 -34859 -466059
109461 109462244 830 -1269 97412 -48966 -35285 -466146
109466 109466776 585 -634 97778 -48792 -35215 -466262
109469 109470536 122 -1245 97656 -49136 -34675 -466232
109473 109474320 463 -488 97802 -48744 -34567 -466237
109477 109478072 708 -1147 97338 -49153 -34667 -466275
109480 109481852 512 -805 97875 -49108 -34525 -466214
109485 109485624 341 -732 97314 -48966 -34299 -466160
109489 109489372 805 -683 96899 -48859 -34541 -466170
109492 109493136 634 -1367 97192 -49621 -34745 -466311
109496 109496912 561 -659 97949 -49342 -34555 -466348
109500 109501412 195 -1000 97534 -49676 -33982 -466294
109504 109505196 756 -610 97973 -49356 -33987 -466398
109508 109508952 317 -805 97851 -49291 -33591 -466422
109512 109512720 585 -659 98144 -49018 -33624 -466390
109515 109516484 390 -830 97534 -49015 -33563 -466281
109519 109520252 1049 -659 96923 -48860 -34090 -466272
109523 109524032 97 -610 97412 -48573 -33538 -466413
109527 109527792 -122 -927 97143 -48721 -32774 -466585
109531 109531572 708 -830 96630 -48741 -32915 -466521
109535 109535344 634 -781 98046 -48753 -33010 -466508
109539 109539876 634 -830 97167 -48587 -32855 -466486
109543 109543648 488 -366 97143 -48160 -32780 -466368
109546 109547388 317 -317 97534 -47506 -32453 -466503
109550 109551136 585 219 97045 -46253 -32516 -466567
109554 109554896 488 -634 97265 -46046 -32326 -466458
109557 109558636 488 -561 97485 -45822 -32340 -466465
109561 109562396 1220 -1367 97387 -46529 -33060 -466566
109565 109566188 488 -1245 97143 -46973 -32971 -466701
109569 109569948 610 -415 98022 -46521 -33088 -466683
109585 109586120 341 -561 97167 -45948 -32290 -466247
109589 109589860 48 -610 97729 -45832 -31709 -466210
109593 109593628 390 -1416 96484 -46629 -31549 -466078
109596 109597412 48 -903 97216 -46709 -31021 -466128
109600 109601180 537 -512 97094 -46471 -30964 -466055
109604 109604936 878 -634 97094 -46360 -31371 -466101
109607 109608708 439 -610 97021 -46215 -31221 -465934
109612 109612468 219 -1416 97729 -47038 -30762 -465894
109616 109616240 1757 -732 97485 -46973 -32233 -465780
109619 109620032 683 -634 97338 -46710 -32306 -465756
109627 109627520 292 -854 97265 -46932 -32471 -465789
109630 109631284 927 -903 96630 -47120 -32925 -465790
109634 109635060 1293 -781 96728 -47042 -33832 -465676
109638 109638852 756 -390 96606 -46552 -34002 -465699
109641 109642616 1171 -561 97021 -46316 -34792 -465810
109645 109646388 1049 -585 98022 -46011 -35231 -465676
109649 109650160 732 -708 97705 -45859 -35289 -465691
109652 109653908 390 -952 97436 -45900 -35076 -465882
109657 109657668 659 -732 97509 -45844 -35188 -465895
109663 109663312 366 -634 97631 -45697 -35119 -465926
109666 109667068 781 -805 97363 -45793 -35369 -465848
109670 109670856 219 -610 97656 -45581 -34917 -465761
109674 109674624 1245 -903 97509 -45665 -35724 -465629
109677 109678404 683 -195 97607 -45006 -35803 -465501
109681 109682172 561 -903 97729 -45261 -35703 -465497
109685 109685940 390 -585 97265 -45083 -35473 -465466
109688 109689700 878 -561 97363 -44910 -35777 -465369
109692 109693472 219 -756 98461 -44876 -35243 -465379
109697 109697232 0 -488 98461 -44543 -34514 -465352
109701 109701596 878 -292 97436 -44130 -34860 -465273
109705 109705360 830 -292 97973 -43695 -35185 -465246
109708 109709124 390 -903 97656 -43877 -34877 -465216
109712 109712892 732 -927 96630 -44033 -35086 -465235
109716 109716664 878 -781 97631 -44111 -35454 -465272
109719 109720440 439 -1245 98071 -44572 -35183 -465352
109723 109724204 537 -1342 96728 -45368 -35094 -465243
109727 109727980 878 -878 97875 -45388 -35388 -465244
109730 109731748 537 -415 96752 -44908 -35283 -465433
109735 109736252 805 -830 97167 -45014 -35566 -465422
109739 109740028 244 -805 96508 -45121 -35174 -465464
109743 109743796 708 -415 97802 -44826 -35291 -465489
109747 109747556 24 -805 98193 -44889 -34652 -465503
109751 109751324 732 -561 97778 -44624 -34850 -465458
109754 109755080 634 -219 98022 -43978 -34826 -465281
109758 109758844 634 -781 97094 -43991 -34926 -465232
109762 109762620 24 -1513 98291 -44975 -34258 -465191
109765 109766392 415 -317 97070 -44518 -34090 -465222
109769 109770144 463 -659 97924 -44297 -33944 -465213
109773 109774644 268 -805 97827 -44279 -33606 -465159
109777 109778412 268 -732 97143 -44344 -33334 -465155
109782 109782176 903 97 96923 -43152 -33714 -465131
109785 109785932 634 -1123 97875 -43635 -33726 -465004
109789 109789716 976 -585 98291 -43456 -34277 -465013
109793 109793480 659 -927 97827 -43742 -34339 -465060
109796 109797244 73 -781 97045 -43869 -33849 -464993
109800 109801008 219 -659 97094 -43813 -33458 -465018
109804 109804784 903 -1342 98291 -44526 -33768 -465001
109808 109809308 927 -854 98339 -44626 -34319 -464986
109812 109813092 512 -805 97045 -44699 -34263 -464964
109816 109816864 805 -1293 97778 -45368 -34457 -465065
109819 109820648 1196 -1318 97802 -46096 -35142 -465035
109824 109824448 732 -805 97143 -46264 -35413 -465109
109828 109828212 463 -512 97485 -45956 -35239 -465133
109831 109831972 390 -1171 97045 -46375 -34921 -465158
109835 109835748 1049 -1123 97436 -46738 -35468 -465140
109839 109839556 830 -1318 97070 -47320 -35691 -465163
109843 109844092 781 -585 97338 -47185 -35960 -465164
109847 109847856 219 -634 97265 -47022 -35587 -465114
109850 109851612 170 -708 97167 -46930 -34972 -465152
109854 109855368 -146 -561 97827 -46687 -34164 -465152
109858 109859136 341 -1171 96606 -47163 -33920 -465061
109861 109862908 927 -366 98071 -46662 -34314 -465071
109865 109866676 415 -878 97485 -46824 -34141 -464805
109870 109870440 390 -366 97045 -46335 -33917 -464810
109874 109874192 1171 -1000 96655 -46650 -34698 -464733
109877 109877988 390 -1049 97924 -47001 -34386 -464617
109893 109894128 415 -781 97875 -46847 -33948 -464048
109897 109897892 512 -1196 96972 -47271 -33778 -464163
109900 109901656 903 -1098 97119 -47702 -34231 -464029
109904 109905448 781 -878 97582 -47674 -34293 -464072
109908 109909224 732 -463 96484 -47518 -34426 -464152
109912 109912964 878 -1098 97802 -47803 -34717 -464318
109916 109916748 585 -537 97582 -47342 -34659 -464251
109920 109920496 488 -512 96411 -47041 -34598 -464243
109923 109924240 537 -415 96850 -46533 -34443 -464243
109931 109931728 244 -1049 97143 -47127 -33942 -464063
109934 109935492 585 -390 97094 -46755 -33928 -464094
109938 109939252 292 -512 98095 -46510 -33678 -464095
109942 109943008 24 -610 97070 -46293 -33089 -464178
109945 109946756 854 -805 97070 -46290 -33535 -464185
109949 109950536 390 -537 97338 -46110 -33163 -464201
109954 109954284 390 -1367 97802 -46872 -32973 -464252
109957 109958048 683 -1513 97216 -47708 -33241 -464167
109961 109961824 170 -439 97265 -47387 -32703 -464088
109965 109965576 585 -415 97705 -46946 -32846 -463988
109971 109971804 634 -48 97851 -46084 -32946 -463897
109975 109975576 1074 -415 97021 -45654 -33611 -463921
