##########
# Recording 28253 start
# Format: >Millis Micros AccelX AccelY AccelZ RotX RotY RotZ<
# All multiplied x100000
##########
28289 28289148 1171 -537 97314 -42402 -42589 -938824
28292 28292884 585 -952 97582 -42948 -42360 -938889
28296 28296624 732 -854 97558 -43322 -42271 -939011
28300 28300360 537 -366 97851 -42983 -41969 -938987
28303 28304068 634 -463 98510 -42807 -41666 -939015
28307 28307792 903 -659 96923 -42793 -41802 -939005
28310 28311524 537 -830 98022 -43060 -41438 -938971
28314 28315252 927 -512 97314 -42845 -41511 -938939
28322 28323640 878 -512 98388 -42885 -41789 -938984
28326 28327372 366 -1171 98608 -43506 -41362 -939065
28331 28331108 512 -512 97802 -43273 -41172 -939050
28334 28334828 805 -1000 97045 -43572 -41085 -939079
28338 28338584 219 -805 97338 -43694 -40514 -939050
28342 28342328 1000 -878 97875 -43706 -40894 -939026
28345 28346080 1025 -1269 97460 -44396 -41264 -939237
28349 28349848 634 -463 97827 -44007 -41111 -939204
28353 28353568 1049 -512 97582 -43703 -41563 -939152
28358 28359152 927 -830 97778 -43555 -41797 -939157
28362 28362904 390 -732 98095 -43535 -41329 -939165
28365 28366628 390 -708 97436 -43390 -40914 -939126
28369 28370352 878 -1147 97290 -43730 -41177 -939152
28374 28374108 708 -1074 97192 -44081 -41194 -939236
28377 28377868 610 -952 97582 -44066 -41154 -939362
28381 28381600 439 -1000 97778 -44291 -40680 -939452
28385 28385340 439 -1196 97680 -44818 -40275 -939464
28388 28389084 1513 -683 96386 -44651 -41240 -939584
28392 28392828 1098 -1464 97924 -45431 -41688 -939597
28396 28397328 488 -854 97827 -45626 -41415 -939814
28400 28401068 903 -805 97900 -45639 -41667 -939845
28404 28404816 317 -537 97363 -45466 -41050 -939931
28407 28408532 683 -903 97119 -45491 -40989 -940087
28411 28412268 1220 -1464 97338 -46230 -41616 -940013
28416 28416036 878 -854 98144 -46201 -41595 -940102
28419 28419780 756 -463 97534 -45757 -41587 -940106
28423 28423500 854 -732 97021 -45685 -41680 -940192
28426 28427224 976 -878 98364 -45764 -41953 -940113
28430 28430968 537 -463 97753 -45231 -41762 -940208
28434 28435428 708 -244 97387 -44572 -41683 -940267
28438 28439152 756 -219 97558 -43837 -41745 -940351
28442 28442884 830 -659 97729 -43693 -41808 -940441
28445 28446612 512 -244 97656 -43059 -41598 -940481
28449 28450332 219 -1049 97607 -43556 -41038 -940512
28453 28454076 585 -195 98242 -42953 -41000 -940579
28456 28457804 1025 -854 97412 -43257 -41245 -940546
28461 28461552 756 -708 97729 -43383 -41205 -940554
28465 28465276 97 -854 97216 -43649 -40389 -940644
28468 28469000 927 -878 98071 -43995 -40672 -940642
28473 28473496 292 -415 97192 -43820 -40097 -940793
28476 28477212 268 -952 97509 -44099 -39414 -940876
28480 28480952 1440 -561 98461 -44014 -40262 -940788
28484 28484688 1025 -903 97045 -44339 -40619 -940796
28487 28488440 1098 -244 96874 -43867 -41041 -940787
28491 28492184 -24 -683 98046 -43915 -40089 -940800
28495 28495904 585 -585 97705 -43796 -39854 -940757
28498 28499628 854 -1489 98291 -44873 -40061 -940770
28503 28503376 -9716 -6884 103051 -51273 -30422 -940640
28507 28507148 8520 -3686 99389 -54427 -38935 -940657
28511 28511640 97 -634 95800 -54152 -38860 -940478
28515 28515372 2075 -1123 98461 -54506 -40776 -940577
28518 28519144 1220 -1147 96606 -54926 -41720 -940545
28522 28522912 1245 -1367 96826 -55648 -42485 -940434
28526 28526664 927 -292 97949 -55022 -42704 -940386
28529 28530404 -73 -1196 97265 -55379 -41812 -940549
28533 28534156 1245 -903 97827 -55190 -42511 -940534
28537 28537900 708 -463 98217 -54641 -42563 -940372
28540 28541632 366 -952 97875 -54312 -42463 -940278
28546 28546104 805 -463 97680 -53490 -42865 -940331
28549 28549840 610 -1171 97802 -53727 -42951 -940390
28553 28553588 537 -683 98193 -53285 -42948 -940329
28556 28557304 463 -1171 97143 -53400 -42866 -940337
28560 28561048 1196 -48 97534 -52210 -43546 -940274
28564 28564796 805 -659 97045 -51788 -43797 -940149
28567 28568524 1269 -537 98022 -51147 -44532 -940070
28571 28572260 854 -659 97412 -50648 -44988 -940001
28575 28576000 1220 -415 98022 -49986 -45655 -939917
28578 28579740 610 -903 97680 -49741 -45758 -939787
28592 28592168 292 -659 97338 -48591 -46181 -939562
28595 28595888 1123 -927 97363 -48352 -46963 -939432
28599 28599648 1000 -1318 98950 -48849 -47228 -939435
28603 28603416 1000 -1757 98266 -49747 -47474 -939328
28606 28607184 732 -1074 97143 -50014 -47503 -939369
28610 28610940 708 -903 96972 -50099 -47511 -939313
28614 28614676 878 -756 97363 -49975 -47699 -939352
28617 28618412 683 -48 99218 -49128 -47637 -939460
28621 28622152 756 -390 97949 -48531 -47682 -939386
28624 28625860 1123 -708 97534 -48257 -48111 -939361
28634 28634240 610 -292 97631 -47435 -48042 -939439
28637 28637968 1123 -561 97460 -47189 -48283 -939352
28641 28641720 805 -1196 97485 -47692 -48278 -939433
28645 28645476 1586 -512 99194 -47205 -49178 -939505
28648 28649224 537 -439 97924 -46734 -48883 -939490
28652 28652936 1464 -903 98120 -46962 -49603 -939471
28656 28656684 1391 -195 98510 -46218 -50343 -939428
28659 28660428 1000 -708 96655 -46008 -50553 -939524
28663 28664180 1123 -1049 96948 -46392 -50735 -939385
28669 28670424 1391 -708 97851 -46321 -51477 -939501
28674 28674168 659 -756 96533 -46302 -51271 -939440
28677 28677912 463 -805 97973 -46253 -50825 -939572
28681 28681648 634 -390 97607 -45858 -50549 -939539
28685 28685376 805 -415 97216 -45493 -50533 -939592
28688 28689120 415 -1171 97753 -45856 -50225 -939572
28692 28692860 708 -708 97729 -45913 -50200 -939488
28696 28696588 976 -878 97387 -46092 -50323 -939468
28699 28700332 781 -952 97265 -46232 -50249 -939296
28703 28704072 976 -537 97558 -45867 -50414 -939331
28707 28708544 488 -854 97802 -46011 -49985 -939500
28711 28712276 830 -537 98168 -45682 -50009 -939466
28715 28716008 708 -1342 97021 -46292 -49782 -939515
28719 28719744 1025 -1074 98144 -46608 -49913 -939361
28723 28723520 463 -1171 97802 -47045 -49530 -939359
28726 28727264 1708 -1025 97558 -47232 -50592 -939394
28730 28731036 268 -512 97656 -46919 -49831 -939337
28734 28734756 439 -976 98437 -47055 -49418 -939373
28737 28738480 219 -1464 97167 -47896 -48725 -939316
28741 28742224 244 -830 97729 -47912 -48127 -939137
28745 28746712 952 -292 97778 -47225 -48246 -939031
28749 28750444 1074 -244 98071 -46572 -48620 -938943
28753 28754188 756 -366 97802 -46111 -48535 -938914
28756 28757900 903 -1025 98388 -46293 -48423 -938836
28761 28761648 1074 -708 98364 -46240 -48755 -938663
28765 28765392 781 -1562 96972 -47225 -48672 -938712
28768 28769144 390 -659 97192 -46902 -48166 -938490
28772 28772872 781 -244 98339 -46245 -48203 -938461
28776 28776612 390 -292 97509 -45723 -47699 -938405
28779 28780332 1074 -952 97241 -45931 -48035 -938476
28784 28784844 195 -1049 96826 -46243 -47229 -938456
28787 28788592 415 -537 97680 -46074 -46814 -938509
28791 28792316 903 -488 98168 -45687 -46946 -938567
28795 28796040 146 -732 97851 -45685 -46192 -938579
28798 28799768 488 -512 98339 -45347 -45689 -938699
28803 28803488 976 -561 96972 -45122 -46006 -938715
28807 28807216 1391 -756 97875 -45114 -46711 -938622
28810 28810972 463 -1196 98461 -45700 -46234 -938810
28814 28814712 463 -732 97534 -45746 -45846 -938840
28818 28819176 878 -390 97729 -45337 -46098 -938887
28822 28822904 805 -1049 97680 -45667 -46148 -938886
28826 28826676 488 -1196 96752 -46170 -45818 -938793
28829 28830424 634 -1049 97875 -46399 -45693 -938986
28833 28834164 1000 -659 97338 -46292 -45949 -938966
28837 28837916 683 -1074 97631 -46636 -45851 -938905
28840 28841668 1098 -830 97216 -46757 -46394 -938910
28845 28845424 976 -488 98364 -46427 -46622 -938891
28848 28849148 219 -439 96582 -46029 -46068 -938857
28852 28852880 878 -708 97558 -45874 -46186 -938813
28857 28857364 1025 -561 97998 -45704 -46384 -938609
28860 28861104 1000 -659 97045 -45646 -46747 -938571
28864 28864856 488 -439 98291 -45089 -46417 -938597
28867 28868564 561 -537 98022 -44972 -46038 -938623
28871 28872280 1000 -708 97827 -45004 -46404 -938639
28875 28876028 512 -732 98022 -45028 -46175 -938679
28878 28879740 1220 -1000 98168 -45218 -46677 -938603
28882 28883512 439 -952 98388 -45378 -46309 -938631
28887 28887240 830 -366 97387 -44987 -46342 -938612
28890 28890960 683 -976 97827 -45148 -46115 -938689
28902 28902768 1123 -170 97924 -44594 -46739 -938885
28906 28906512 1318 -415 96874 -44270 -47306 -938842
28909 28910252 854 -73 97778 -43548 -47470 -938908
28913 28913980 756 -781 97412 -43646 -47416 -938847
28916 28917712 1171 -561 97436 -43402 -47850 -938795
28920 28921464 1220 -683 97802 -43377 -48348 -938866
28924 28925212 756 -1123 97729 -43836 -48215 -938878
28928 28928964 1025 -537 98437 -43592 -48446 -938777
28932 28932712 805 -708 97485 -43469 -48496 -938744
28936 28936444 1000 -756 97192 -43479 -48725 -938821
28944 28944928 415 -415 96826 -43113 -48255 -938756
28948 28948652 1098 -146 96948 -42456 -48526 -938846
28951 28952404 1464 -610 98046 -42236 -49358 -938880
28955 28956140 439 -488 96948 -41938 -48860 -938797
28959 28959856 952 -634 98388 -41919 -48983 -938845
28962 28963592 830 -903 98071 -42185 -48795 -938892
28966 28967344 732 -537 97534 -41923 -48617 -938740
28971 28971060 610 -878 97363 -42113 -48435 -938860
28974 28974800 952 -585 97509 -41960 -48628 -938827
28980 28981204 146 -1489 97192 -42940 -47758 -938861
28984 28984944 1464 -781 97705 -42872 -48348 -938859
28988 28988692 610 -1025 97460 -43207 -48095 -938830
28991 28992440 1635 -659 98291 -43094 -49070 -938700
28995 28996200 1562 -805 97949 -43222 -50067 -938808
28999 28999952 292 -341 97192 -42743 -49407 -938719
29002 29003672 708 -976 96923 -43163 -49287 -938766
29006 29007404 390 -366 96679 -42662 -48769 -938765
29010 29011120 1123 -781 96850 -42689 -49248 -938672
29014 29014872 390 -683 97631 -42698 -48618 -938776
29019 29019336 1171 -659 97753 -42569 -49068 -938792
29022 29023080 805 -1171 97119 -43059 -49170 -938790
29026 29026840 439 -903 98168 -43274 -48623 -938780
29030 29030580 1879 -317 98217 -42766 -49845 -938806
29033 29034328 610 -634 97753 -42691 -49552 -938792
29037 29038068 488 -512 98681 -42401 -49142 -938777
29041 29041784 463 -512 98388 -42102 -48655 -938857
29044 29045500 1098 -1123 97851 -42683 -48897 -938752
29048 29049268 927 -952 97338 -42901 -48976 -938718
29052 29053004 561 -585 97119 -42748 -48602 -938708
29057 29057484 488 -561 97778 -42439 -48263 -938728
29061 29061196 1220 -1171 97998 -42997 -48703 -938736
29064 29064964 634 -268 98022 -42445 -48465 -938691
29068 29068700 659 -634 98339 -42372 -48211 -938758
29072 29072428 463 -415 96948 -42033 -47881 -938766
29075 29076144 1733 -561 98608 -41864 -48926 -938764
29079 29079904 1000 -805 97802 -41827 -49103 -938685
29083 29083664 268 -317 97875 -41344 -48418 -938642
29086 29087384 341 -805 97802 -41432 -47899 -938616
29090 29091112 1074 -708 98242 -41488 -48190 -938655
29094 29095608 1196 -952 97485 -41643 -48498 -938638
29099 29099352 1025 -830 98120 -41696 -48846 -938678
29102 29103100 683 -659 97656 -41604 -48650 -938654
29106 29106836 1123 -976 97924 -41885 -49021 -938658
29110 29110592 1196 -268 98266 -41339 -49360 -938634
29113 29114328 756 -537 97338 -41131 -49309 -938632
29117 29118052 439 -1074 98559 -41618 -48841 -938698
29121 29121792 805 -708 97802 -41615 -48889 -938715
29124 29125532 903 -708 97338 -41658 -49066 -938566
29129 29130020 659 -1098 97241 -42007 -48802 -938711
29132 29133772 537 -830 97924 -42186 -48527 -938690
29136 29137496 341 -854 97729 -42416 -47832 -938780
29140 29141216 878 -1049 98144 -42818 -47897 -938747
29144 29144972 1098 -1147 96704 -43262 -48301 -938818
29148 29148740 244 -488 98071 -42949 -47615 -938841
29152 29152464 781 -268 98925 -42438 -47604 -938785
29155 29156188 1440 -463 97875 -42102 -48267 -938868
29159 29159924 927 -512 97485 -41890 -48321 -938944
29163 29163652 659 -292 97192 -41434 -48173 -938897
29167 29168132 1196 -537 97485 -41285 -48646 -938889
29171 29171872 512 -878 97558 -41362 -48231 -938824
29174 29175600 732 -1025 96826 -41826 -48158 -938699
29178 29179344 756 122 97485 -40963 -48148 -938616
29182 29183068 1562 -244 97167 -40444 -48927 -938357
29186 29186820 585 -878 97436 -40675 -48584 -938380
29190 29190556 488 -1318 97973 -41345 -48251 -938245
29194 29194284 878 -1000 97119 -41736 -48288 -938166
29197 29198048 805 -903 98168 -41854 -48156 -938183
29201 29201788 1196 -244 97436 -41381 -48560 -938231
29212 29213388 317 -732 97753 -41528 -47782 -938243
29216 29217104 463 -1098 96557 -41921 -47337 -938370
29219 29220832 1391 -708 96142 -41872 -48063 -938336
29223 29224580 1196 -219 97851 -41360 -48496 -938303
29228 29228328 708 -219 97973 -40808 -48278 -938178
29231 29232048 756 -561 97582 -40634 -48238 -938213
29235 29235788 683 -463 97070 -40393 -48081 -938314
29239 29239508 634 -610 98876 -40297 -47815 -938382
29242 29243232 366 -756 97753 -40295 -47235 -938374
29246 29246952 805 -830 97363 -40498 -47140 -938303
29254 29255524 1245 -634 97582 -40685 -47661 -938129
29258 29259284 659 -292 98242 -40204 -47415 -938114
29262 29263016 512 -903 97875 -40485 -47004 -938085
29265 29266740 854 -634 96289 -40449 -47112 -938052
29270 29270484 830 -537 96752 -40414 -46968 -938020
29274 29274216 244 -585 97851 -40207 -46311 -937949
29277 29277952 1318 -830 96801 -40302 -46868 -937990
29281 29281704 561 -878 97778 -40495 -46616 -938012
29285 29285436 -244 -585 97070 -40476 -45311 -937919
29288 29289176 1318 -195 98144 -39984 -45993 -938027
29293 29294596 1171 -537 98266 -39819 -46351 -938032
29297 29298340 952 -219 97265 -39138 -46456 -937920
29301 29302076 1049 -463 98461 -38994 -46803 -937946
29304 29305808 1123 -927 98071 -39245 -47174 -937871
29308 29309568 585 -927 98657 -39710 -46912 -937853
29313 29313304 1293 -1464 97900 -40612 -47511 -937888
29316 29317060 1269 -512 97802 -40395 -47941 -937874
29320 29320804 781 -805 97045 -40575 -47936 -937896
29324 29324552 1000 -585 97680 -40424 -48174 -937936
29328 29329048 683 -561 98291 -40345 -48039 -938109
29332 29332772 805 -683 97265 -40398 -47942 -938098
29335 29336512 952 -878 97729 -40681 -48143 -938005
29339 29340260 854 -97 96850 -39905 -48227 -937942
29343 29343992 732 -878 97119 -40149 -48145 -937945
29346 29347728 756 -1123 97241 -40676 -47938 -937980
29350 29351480 1123 -561 97851 -40610 -48187 -937947
29355 29355220 561 -439 97070 -40305 -47905 -937933
29358 29358944 488 -683 97021 -40253 -47506 -937803
29362 29362672 1269 -561 97802 -40016 -48035 -937723
29366 29367172 1025 -708 97949 -39984 -48353 -937612
29370 29370912 366 -146 97363 -39349 -47817 -937706
29374 29374636 439 -1025 97241 -39846 -47384 -937700
29377 29378384 1391 -1098 97216 -40231 -48143 -937747
29381 29382144 1367 -415 96386 -39987 -48725 -937769
29385 29385880 781 -488 98315 -39690 -48697 -937817
29388 29389600 659 -73 97729 -38928 -48491 -937968
29392 29393332 634 -488 97851 -38668 -48234 -937903
29396 29397052 610 -292 96752 -38266 -47915 -937876
29400 29400784 561 -952 97778 -38611 -47652 -937783
29405 29405276 561 -1000 97607 -39020 -47478 -937890
29408 29409028 903 -683 96997 -39066 -47644 -937882
29412 29412772 585 -390 97998 -38719 -47346 -937895
29416 29416488 756 -537 97460 -38666 -47164 -937811
29419 29420204 708 -1586 97827 -39746 -47032 -937882
29423 29423964 341 -390 97167 -39475 -46518 -937853
29426 29427676 512 -634 98291 -39466 -46051 -937788
29430 29431400 561 -830 97680 -39615 -45730 -937755
29434 29435128 317 -537 98779 -39468 -45224 -937690
29437 29438856 952 -1196 98022 -40115 -45658 -937802
29443 29443360 512 -512 97265 -39887 -45338 -937769
29446 29447072 488 -439 97558 -39540 -45023 -937834
29450 29450784 634 -878 98095 -39771 -44793 -937802
29454 29454524 781 -561 96313 -39590 -44792 -937722
29457 29458260 659 -830 97680 -39790 -44766 -937519
29461 29461996 219 -48 97314 -39016 -44089 -937577
29465 29465724 1220 -1123 98071 -39588 -44625 -937534
29468 29469492 1000 -1171 98046 -40179 -44891 -937539
29472 29473264 732 -1269 97949 -40798 -44869 -937468
29476 29477752 244 -244 96923 -40342 -44297 -937509
29480 29481476 488 -854 97534 -40510 -44129 -937422
29485 29485200 -170 -659 98120 -40537 -43177 -937397
29488 29488940 659 -903 97045 -40889 -43135 -937475
29492 29492680 634 -927 97705 -41200 -43004 -937469
29496 29496416 927 -488 97241 -40893 -43197 -937367
29499 29500144 366 -830 97778 -41091 -42595 -937444
29503 29503864 415 -1269 97460 -41820 -42250 -937406
29507 29507608 1098 -170 97485 -41171 -42733 -937450
29510 29511364 1464 -1635 97534 -42329 -43612 -937424
29522 29523948 952 -659 97192 -42222 -43651 -937715
29527 29527680 292 -341 98266 -41849 -43228 -937579
29531 29531392 659 -952 98657 -42167 -43026 -937591
29534 29535112 1367 -976 98388 -42402 -43896 -937552
29538 29538860 415 -537 97705 -42232 -43482 -937489
29542 29542584 1049 -585 98217 -41972 -43878 -937543
29545 29546328 878 -903 97778 -42174 -44067 -937449
29549 29550072 415 -1245 98901 -42809 -43775 -937434
29553 29553816 -195 -830 96752 -42941 -42633 -937538
29556 29557560 -73 -366 97778 -42553 -41773 -937628
29565 29566216 927 -390 98266 -42334 -41967 -937403
29569 29569936 537 -878 97949 -42492 -41858 -937340
29573 29573664 903 -585 97534 -42290 -41967 -937371
29577 29577392 585 -830 97631 -42441 -41865 -937402
29580 29581128 830 -512 98071 -42288 -42070 -937375
29584 29584860 146 -634 98535 -42153 -41422 -937420
29588 29588592 1342 -659 97631 -42044 -42107 -937368
29591 29592344 512 -756 97656 -42121 -41945 -937402
29595 29596076 73 -415 96923 -41783 -41184 -937351
29599 29599800 1025 -708 96899 -41722 -41551 -937390
29604 29605420 927 -805 97070 -41875 -41673 -937131
29608 29609156 1049 -1123 97070 -42406 -41990 -936928
29612 29612920 366 -708 97143 -42387 -41589 -936889
29616 29616648 1098 -952 97924 -42658 -42079 -936823
29620 29620408 878 -439 97094 -42284 -42280 -936781
29623 29624144 512 -195 98022 -41535 -42034 -936803
29627 29627872 561 -268 98022 -41095 -41797 -936751
29631 29631588 854 -634 97460 -41047 -41926 -936626
29634 29635328 610 -634 97802 -40814 -41666 -936734
29639 29639784 976 -756 97680 -40785 -41967 -936732
29642 29643540 463 -585 98022 -40636 -41706 -936694
29646 29647268 1367 -463 98510 -40363 -42396 -936747
29650 29651004 781 -488 97387 -40225 -42521 -936682
29654 29654736 756 -854 97070 -40482 -42528 -936687
29658 29658476 732 0 97387 -39718 -42585 -936722
29661 29662044 1025 -805 97509 -39787 -42975 -936897
29665 29665800 756 -488 98974 -39534 -43010 -936854
29669 29669524 756 -854 98266 -39740 -43019 -937018
29672 29673264 219 -903 97460 -40103 -42334 -936863
29677 29677748 659 -634 97875 -40027 -42224 -936867
29680 29681484 805 -781 97436 -40187 -42286 -936768
29684 29685232 1098 -634 98242 -40120 -42812 -936693
29688 29688988 390 -732 98413 -40081 -42443 -936678
29691 29692712 1025 -439 97705 -39729 -42809 -936560
29696 29696452 1342 -537 98095 -39634 -43570 -936637
29700 29700192 1000 -708 97631 -39646 -43838 -936572
29703 29703948 561 -732 98120 -39726 -43708 -936551
29707 29707680 756 -805 97827 -39871 -43738 -936591
29711 29711428 561 -878 96948 -40198 -43510 -936631
29715 29715920 1318 -463 97558 -39975 -44123 -936629
29719 29719660 756 -292 97485 -39552 -44073 -936669
29722 29723392 1342 -1220 98315 -40232 -44715 -936728
29726 29727156 732 -366 96923 -39851 -44723 -936593
29730 29730872 854 -1025 96948 -40316 -44884 -936610
29733 29734632 537 -1342 97192 -41117 -44495 -936529
29737 29738368 219 -878 97998 -41329 -43827 -936527
29742 29742112 976 -634 97363 -41227 -44122 -936548
29745 29745860 1098 -781 97387 -41364 -44581 -936614
29749 29749616 1196 -292 96874 -40848 -45060 -936608
29753 29754104 146 -512 97778 -40662 -44337 -936581
29757 29757836 1025 -805 96459 -40833 -44705 -936690
29761 29761592 48 -244 97851 -40361 -43963 -936702
29764 29765312 585 -732 97705 -40407 -43712 -936804
29768 29769044 585 -659 96948 -40383 -43441 -936853
29771 29772768 683 -512 98413 -40230 -43351 -936901
29775 29776496 805 -463 97387 -39930 -43624 -936936
29779 29780224 195 -1123 97290 -40574 -42964 -936946
29783 29783976 390 -488 97900 -40359 -42569 -936950
29787 29787688 1049 -1098 97241 -40840 -42956 -936851
29791 29792212 878 -439 96508 -40540 -43254 -936776
29795 29795948 610 -732 98022 -40663 -43074 -936719
29799 29799676 1025 -463 97778 -40327 -43419 -936745
29802 29803416 1098 -1147 97534 -40827 -43764 -936761
29806 29807180 732 -830 97143 -40966 -43778 -936948
29810 29810912 854 -732 97216 -40952 -43874 -936960
29813 29814636 219 -805 97192 -40999 -43149 -937080
29817 29818376 878 -878 97949 -41122 -43269 -937079
29821 29822116 878 -708 98095 -41121 -43306 -937150
29852 29853196 659 -1049 98095 -41080 -42767 -936632
29856 29856948 610 -1074 97192 -41471 -42623 -936658
29859 29860696 1025 -463 98315 -41111 -43020 -936766
29863 29864428 805 -659 98583 -40997 -43155 -936710
29868 29868164 1098 -512 97680 -40805 -43640 -936617
29871 29871908 634 -415 97070 -40533 -43457 -936651
29875 29875636 170 -756 97729 -40516 -42758 -936664
29879 29879360 1220 -830 98193 -40742 -43301 -936644
29882 29883112 195 -244 97534 -40262 -42707 -936648
29886 29886840 292 -683 98046 -40238 -42326 -936633
29894 29895588 756 -878 98022 -40450 -42282 -936873
29898 29899332 341 -537 97924 -40294 -41849 -936767
29902 29903048 439 -170 97094 -39726 -41437 -936807
29905 29906764 878 -903 97143 -39919 -41705 -936921
29910 29910500 1049 -561 98242 -39752 -42144 -936998
29914 29914248 390 -244 98071 -39189 -41790 -937038
29917 29917964 683 -439 97509 -38862 -41788 -937244
29921 29921692 561 -585 97924 -38856 -41565 -937155
29925 29925416 854 -585 98364 -38699 -41730 -937218
29928 29929148 585 -537 98095 -38613 -41592 -937149
29934 29935348 927 -341 97875 -38394 -41713 -937311
29938 29939064 952 -976 98901 -38686 -42001 -937405
29942 29942804 488 -439 97216 -38538 -41593 -937331
29945 29946516 976 -634 96874 -38506 -41863 -937304
29949 29950252 952 -463 97241 -38086 -42310 -937284
29953 29953972 292 -927 97143 -38455 -41697 -937312
29957 29957708 634 24 97729 -37544 -41662 -937243
29961 29961420 903 -708 97998 -37585 -41908 -937297
29964 29965148 1074 -1293 97900 -38253 -42316 -937282
29968 29968916 1196 -390 97582 -37969 -42807 -937194
29972 29973404 756 -585 97924 -37878 -42814 -937094
29976 29977132 390 -122 97558 -37240 -42429 -937111
29980 29980860 390 -585 97778 -37240 -42034 -937013
29983 29984584 634 -659 98022 -37272 -42050 -936993
29987 29988324 830 -878 96215 -37565 -42221 -937051
29991 29992068 512 -366 96728 -37221 -41890 -937045
29995 29995780 854 -170 97216 -36604 -42001 -936936
29999 29999512 463 -878 96948 -36884 -41848 -937003
30003 30003236 952 -1147 97192 -37486 -42058 -937038
30006 30006988 244 -439 97924 -37281 -41581 -937073
30011 30011460 1074 -854 96752 -37583 -42065 -937193
30014 30015224 610 -1025 97265 -38058 -41919 -937099
30018 30018976 756 -781 96630 -38170 -41889 -937157
30022 30022716 463 -1025 97656 -38636 -41547 -937165
30025 30026456 439 -659 97387 -38526 -41198 -937151
30029 30030184 878 -805 97216 -38732 -41379 -937145
30032 30033928 415 -1147 98168 -39261 -41153 -937093
30036 30037668 488 -292 97558 -38798 -40650 -936984
30041 30041388 976 -1245 97705 -39492 -41032 -937046
30045 30045884 97 -976 97607 -39632 -40208 -937059
30049 30049608 317 -415 96606 -39399 -39758 -937067
30052 30053324 488 -415 97607 -39166 -39532 -937047
30056 30057040 537 -634 96704 -39118 -39355 -937027
30060 30060784 708 -708 98168 -39184 -39413 -937076
30063 30064512 805 -537 97143 -39142 -39600 -937031
30067 30068248 610 -781 97973 -39220 -39468 -937011
30071 30071980 1098 -1074 97582 -39688 -39925 -937092
30074 30075748 585 -1147 97167 -40325 -39764 -937054
30078 30079500 927 -1000 97900 -40751 -40133 -937052
30083 30084004 732 -537 97021 -40457 -40184 -937202
30087 30087728 585 -805 98583 -40519 -40092 -937157
30091 30091464 878 -292 96533 -40124 -40299 -937197
30094 30095188 756 -1196 98779 -40709 -40383 -937238
30098 30098944 634 -366 97143 -40359 -40379 -937237
30102 30102660 292 -976 97021 -40687 -39913 -937144
30105 30106392 585 -585 97875 -40697 -39790 -937160
30109 30110128 732 -488 97534 -40493 -39913 -937131
30113 30113844 317 -585 96630 -40347 -39461 -937102
30116 30117568 1074 -390 98437 -40001 -39827 -937094
30121 30122056 634 -952 97143 -40317 -39825 -937282
30125 30125800 1196 -219 97094 -39639 -40357 -937256
30129 30129544 903 -1074 97607 -40112 -40557 -937254
30133 30133304 976 -878 97802 -40313 -40824 -937276
30136 30137044 659 -488 98388 -40100 -40788 -937182
30140 30140776 1293 -537 97729 -39955 -41508 -937103
30144 30144520 878 -1049 97460 -40386 -41666 -937221
30147 30148276 268 -463 97924 -40091 -41148 -937286
30151 30152000 561 -952 96777 -40426 -40928 -937293
30154 30155728 1074 -830 97290 -40654 -41308 -937265
30167 30167508 366 -878 96752 -40703 -40738 -937954
30171 30171232 708 -1147 97680 -41132 -40759 -938022
30174 30174988 610 -708 97875 -41115 -40575 -938050
30178 30178720 561 -634 98535 -41090 -40404 -938159
30182 30182444 1000 -927 98095 -41347 -40811 -938166
30185 30186200 708 -1367 97656 -42095 -40826 -938201
30189 30189952 366 -1196 97656 -42729 -40386 -938209
30193 30193676 756 -488 97241 -42508 -40466 -938235
30196 30197396 683 -854 97192 -42660 -40559 -938282
30200 30201140 1318 -268 97680 -42086 -41317 -938312
30209 30210008 634 -854 98510 -42224 -41231 -938139
30213 30213756 1025 -488 97387 -41985 -41626 -938083
30217 30217488 537 -903 98242 -42226 -41456 -938044
30220 30221212 439 -195 97973 -41580 -40993 -937902
30224 30224936 1098 -878 96582 -41732 -41632 -937876
30228 30228688 1220 -952 98657 -42133 -42182 -937856
30231 30232432 292 -1074 98510 -42576 -41650 -937884
30235 30236180 659 -1245 97509 -43179 -41561 -937842
30239 30239932 1416 -854 97558 -43243 -42479 -937822
30245 30246348 292 -415 97875 -42919 -42081 -937883
30249 30250068 756 -390 97534 -42430 -42075 -937906
30253 30253788 610 -903 96777 -42657 -42005 -937977
30257 30257532 512 -48 96899 -41867 -41835 -938003
30261 30261260 732 -781 98095 -41951 -41868 -938011
30264 30265000 1416 -659 97582 -41934 -42831 -937917
30268 30268748 488 -830 97753 -42060 -42552 -938044
30271 30272480 1098 -903 98144 -42224 -42944 -938047
30275 30276236 927 -561 97607 -42063 -43271 -938100
30279 30279960 537 -1171 96972 -42585 -43040 -938053
30283 30284452 1098 -219 97607 -41909 -43500 -937859
30287 30288204 952 -488 97460 -41699 -43714 -937867
30290 30291916 488 -390 97485 -41498 -43523 -937853
30295 30295624 805 -659 98095 -41403 -43576 -937790
30299 30299368 927 -488 97631 -41067 -43816 -937857
30302 30303088 1171 -732 96679 -40983 -44378 -937867
30306 30306836 341 -659 97314 -40908 -43830 -937898
30310 30310556 366 -585 97363 -40888 -43354 -937942
30313 30314268 952 -1049 97631 -41338 -43635 -937879
30317 30318032 683 -463 97729 -41042 -43569 -937864
30321 30322504 805 -390 97729 -40734 -43780 -937783
30325 30326236 732 -805 97631 -40865 -43886 -937795
30329 30329972 634 -781 97363 -41048 -43846 -937711
30332 30333716 1049 -366 97387 -40771 -44235 -937831
30337 30337456 1025 -1000 97094 -41128 -44628 -937861
30341 30341224 683 -732 97924 -41176 -44662 -937897
30344 30344956 708 -439 97705 -40976 -44707 -938047
30348 30348672 439 -537 97656 -40747 -44276 -938046
30351 30352384 854 -1171 98168 -41250 -44567 -938054
30355 30356140 1025 -561 98046 -41243 -44947 -938094
30360 30360636 805 -708 97241 -41289 -45010 -938117
30363 30364380 903 -756 98364 -41405 -45211 -938145
30367 30368120 366 -1025 97167 -41701 -44811 -938217
30371 30371852 1269 -537 96972 -41556 -45483 -938165
30374 30375604 1000 -634 97070 -41451 -45660 -938236
30379 30379356 854 -756 97241 -41508 -45760 -938198
30382 30383096 878 -903 97949 -41739 -45878 -938274
30386 30386856 1586 -415 97778 -41337 -46845 -938309
30390 30390604 366 -732 96630 -41371 -46356 -938207
30394 30395068 268 -512 97802 -41066 -45661 -938205
30398 30398784 732 -439 97875 -40805 -45624 -938093
30401 30402500 1049 -366 97875 -40507 -45959 -938083
30405 30406240 488 -561 97387 -40340 -45746 -938105
30409 30409956 1684 -781 97729 -40450 -46807 -938136
30412 30413716 1196 -268 96899 -40132 -47280 -938152
30416 30417464 878 -1098 97753 -40701 -47348 -938004
30420 30421224 366 -1245 97070 -41364 -47019 -937996
30424 30424956 830 -781 97998 -41372 -47002 -938061
30428 30428696 463 -830 98461 -41471 -46670 -938238
30432 30433168 830 -952 97582 -41754 -46748 -938175
30436 30436920 1196 -439 97485 -41502 -47250 -938209
30440 30440668 1342 -732 97119 -41473 -47881 -938267
30443 30444400 634 -878 97680 -41597 -47698 -938210
30447 30448140 878 -805 98120 -41698 -47727 -938273
30451 30451884 1220 -805 96923 -41789 -48202 -938308
30454 30455644 488 -756 97656 -42004 -47860 -938349
30458 30459372 708 -830 97412 -42122 -47696 -938242
30462 30463108 512 -1391 97924 -42968 -47426 -938161
30466 30466840 756 -537 97460 -42795 -47291 -938183
30478 30478440 927 -854 97827 -43006 -47137 -937792
30481 30482188 1049 -537 97241 -42798 -47433 -937845
30485 30485940 805 -537 98217 -42658 -47380 -937871
30489 30489668 683 -634 97778 -42527 -47274 -937879
30492 30493408 952 -1000 97949 -42991 -47341 -937779
30496 30497152 830 -854 97265 -43170 -47387 -937837
30500 30500896 1049 -512 97143 -42943 -47530 -937826
30503 30504636 415 -903 97460 -42982 -47023 -937938
30508 30508364 610 -854 97631 -43054 -46773 -937932
30511 30512092 561 -1074 96923 -43499 -46551 -937926
30520 30521072 976 -390 98144 -43032 -46802 -938361
30524 30524800 732 -634 98583 -42918 -46736 -938397
30528 30528540 537 -732 98486 -42859 -46467 -938391
30531 30532264 976 -1196 97290 -43471 -46737 -938431
30535 30536016 1220 -268 98046 -42978 -47234 -938352
30538 30539756 683 48 96826 -42119 -47157 -938419
30542 30543480 73 -1074 97607 -42658 -46139 -938515
30546 30547212 585 -585 97290 -42455 -45884 -938472
30550 30550936 1733 -634 98071 -42370 -46985 -938378
30556 30556368 585 -439 98291 -42043 -46752 -938345
30559 30560084 805 -1049 97802 -42457 -46834 -938288
30563 30563844 1000 -659 96728 -42245 -47110 -938260
30567 30567592 97 -415 97558 -41852 -46274 -938327
30570 30571316 1098 -1245 96728 -42466 -46759 -938398
30574 30575084 1318 -878 97949 -42610 -47330 -938424
30578 30578840 1147 -585 98120 -42428 -47711 -938597
30581 30582588 610 -366 97949 -42033 -47412 -938564
30585 30586312 927 -683 96679 -41980 -47568 -938618
30589 30590056 927 -561 97900 -41936 -47614 -938640
30594 30594544 634 -952 98168 -42346 -47415 -938607
30598 30598280 585 -1123 97680 -42871 -47060 -938551
30601 30602024 1049 -1171 97460 -43451 -47444 -938476
30605 30605788 927 -390 97900 -43129 -47604 -938502
30609 30609520 610 -610 97753 -42924 -47404 -938500
30612 30613260 1464 -903 98901 -43125 -48183 -938456
30616 30617008 952 -927 97802 -43327 -48278 -938482
30620 30620752 732 -830 98803 -43482 -48207 -938512
30623 30624492 1000 -561 97192 -43191 -48436 -938565
30627 30628240 976 -952 98217 -43416 -48553 -938527
30631 30632724 830 -585 97412 -43058 -48582 -938578
30636 30636468 805 -952 97412 -43308 -48540 -938627
30640 30640216 830 -756 98559 -43317 -48562 -938594
30643 30643972 1171 -219 98266 -42719 -48940 -938415
30647 30647724 1293 -195 96826 -42123 -49480 -938491
30651 30651476 122 -415 97143 -41753 -48545 -938439
30654 30655204 927 -561 98486 -41667 -48828 -938455
30658 30658936 659 -268 97534 -41096 -48572 -938509
30661 30662644 1513 -756 96874 -41169 -49410 -938430
30665 30666400 390 -585 97900 -41068 -48922 -938464
30670 30670876 927 -952 97705 -41316 -48966 -938255
30673 30674612 903 -781 97119 -41364 -48976 -938412
30678 30678356 781 -927 97021 -41663 -49087 -938355
30681 30682084 708 -952 97167 -42042 -48882 -938280
30685 30685812 1098 -1074 97851 -42388 -49174 -938321
30689 30689588 1684 -585 97607 -42291 -50110 -938379
30692 30693332 146 -756 98022 -42384 -49132 -938418
30696 30697064 1049 -488 97290 -42100 -49440 -938380
30700 30700804 805 -781 97143 -42233 -49362 -938328
30703 30704540 366 -1074 96411 -42720 -48781 -938430
30708 30709028 781 -439 98046 -42379 -48617 -938471
30711 30712760 732 -756 97973 -42543 -48359 -938420
30715 30716484 1049 -683 97387 -42628 -48574 -938473
30720 30720232 219 -976 97119 -42934 -48030 -938324
30723 30723964 903 -903 97265 -43032 -48182 -938389
30727 30727704 854 -1196 96850 -43560 -48243 -938479
30731 30731460 781 -683 97875 -43508 -48257 -938437
30734 30735200 488 -708 97973 -43424 -47803 -938380
30738 30738920 659 -488 97705 -43192 -47675 -938452
30742 30743384 195 -805 97802 -43212 -46825 -938480
30746 30747124 1000 -683 96508 -43155 -47051 -938634
30750 30750872 1074 -244 97460 -42548 -47414 -938647
30753 30754612 1147 -708 97485 -42578 -47713 -938651
30757 30758360 781 -805 97802 -42756 -47760 -938672
30761 30762108 463 -341 97558 -42314 -47273 -938744
30765 30765820 1049 -170 97900 -41644 -47521 -938900
30769 30769568 805 -48 97582 -40878 -47513 -938922
30773 30773312 756 -732 97460 -40967 -47493 -938847
30776 30777048 1000 -756 97436 -41020 -47680 -939046
30788 30789608 1025 -659 97656 -40597 -48003 -939132
30792 30793376 708 -781 97534 -40740 -47786 -939154
30796 30797112 268 -292 98828 -40296 -47192 -939130
30799 30800828 1000 -756 97582 -40361 -47370 -939134
30803 30804580 439 -561 98315 -40359 -46831 -939139
30808 30808300 708 -1049 97631 -40717 -46610 -939138
30811 30812036 927 -878 97875 -40746 -46926 -939136
30815 30815780 512 -659 97143 -40691 -46539 -939153
30819 30819500 341 -1391 98168 -41475 -46034 -939165
30822 30823232 781 -415 97241 -41278 -45975 -939212
30831 30832304 634 -805 97851 -41343 -45976 -939414
30835 30836032 732 -1342 97851 -42134 -45937 -939490
30838 30839772 561 -1049 97582 -42480 -45728 -939479
30842 30843512 756 -219 97656 -41870 -45564 -939569
30846 30847244 488 -415 97485 -41641 -45210 -939512
30850 30850960 1245 -1196 96948 -42192 -45802 -939498
30854 30854724 1098 -1000 97753 -42588 -46228 -939532
30858 30858496 634 -683 97778 -42493 -45958 -939558
30861 30862224 463 -610 97143 -42501 -45563 -939465
30865 30865948 708 -415 97412 -42112 -45432 -939573
30870 30871532 415 -439 97998 -41964 -44927 -939754
30874 30875256 878 -537 98144 -41848 -45055 -939843
30878 30878992 1489 -561 97631 -41715 -46046 -939796
30881 30882724 854 -1049 97778 -42201 -46050 -939672
30885 30886476 976 -732 97167 -42257 -46179 -939866
30889 30890204 927 -976 98413 -42459 -46337 -939863
30893 30893956 634 -756 97460 -42441 -46181 -939910
30897 30897692 878 -585 97387 -42358 -46328 -939932
30901 30901428 634 -73 97729 -41624 -46191 -939967
30905 30905904 463 -585 96704 -41501 -45698 -940201
30909 30909616 732 -366 97460 -41115 -45606 -940081
30912 30913328 537 -634 96752 -41027 -45283 -940060
30916 30917060 634 -317 97265 -40523 -45179 -939995
30920 30920780 1318 -1318 97363 -41430 -45805 -939961
30923 30924548 1220 -708 96435 -41371 -46376 -940051
30927 30928296 -48 -219 98144 -40742 -45370 -940072
30931 30932032 1000 -732 97680 -40942 -45673 -940082
30935 30935788 830 -390 97534 -40601 -45760 -939910
30939 30939524 659 -512 97021 -40359 -45619 -939954
30943 30944000 830 -488 98168 -40068 -45509 -940074
30947 30947732 1049 -805 97436 -40187 -45897 -940041
30951 30951492 1147 -756 98315 -40230 -46451 -940080
30954 30955244 952 -634 97265 -40096 -46573 -940225
30958 30958980 1025 -708 98828 -40200 -46876 -940306
30962 30962728 463 -1220 97094 -40721 -46446 -940249
30965 30966464 634 -805 96923 -40853 -46406 -940223
30969 30970208 1171 -585 97558 -40756 -46792 -940254
30972 30973948 415 -1000 97924 -41107 -46456 -940215
30977 30977704 781 -537 97216 -40972 -46389 -940079
30982 30982192 1074 -683 97509 -40962 -46640 -940010
30985 30985944 390 -73 98291 -40055 -46188 -939928
30989 30989664 0 -537 98242 -39818 -45242 -939940
30992 30993224 708 -537 97973 -39746 -45208 -939877
30996 30996956 1000 -488 98388 -39610 -45502 -940041
31000 31000700 659 -732 97778 -39591 -45315 -939907
31003 31004424 1269 -610 97387 -39344 -45933 -939715
31007 31008172 805 -903 97338 -39675 -45959 -939732
31011 31011916 732 317 97998 -38573 -45821 -939735
31014 31015636 73 -1123 97656 -39084 -44889 -939770
31020 31020124 317 -170 97241 -38571 -44583 -939829
31023 31023852 854 -708 96948 -38613 -44667 -939686
31027 31027588 659 -268 98120 -38164 -44593 -939753
31031 31031320 1000 -708 97729 -38289 -44907 -939738
31034 31035068 366 -1000 97021 -38718 -44514 -939919
31038 31038800 854 -415 97119 -38505 -44708 -939991
31041 31042524 854 -488 97534 -38336 -44778 -939971
31045 31046252 756 -732 97924 -38397 -44656 -940006
31049 31049980 1147 -1000 97338 -38781 -45163 -939977
31052 31053744 1147 -415 98071 -38413 -45649 -939914
31057 31058240 1196 -1123 97753 -38895 -46055 -939900
31060 31062000 830 -561 98193 -38773 -46205 -939837
31065 31065748 0 -1123 97363 -39308 -45168 -940000
31069 31069344 24 -854 98120 -39399 -44308 -940007
31072 31073072 610 -659 97753 -39426 -44132 -939993
31076 31076812 463 -537 96704 -39269 -43813 -939987
31080 31080544 634 -366 97753 -38905 -43681 -940018
31083 31084272 341 -976 96972 -39281 -43188 -940034
31087 31088000 805 -927 96484 -39593 -43255 -940010
31099 31100420 1000 -1049 96752 -40407 -43314 -940004
31104 31104196 854 -195 97656 -39721 -43553 -939789
31107 31107928 610 -1025 96923 -40163 -43357 -939854
31111 31111672 976 -927 97656 -40480 -43694 -939816
31115 31115408 1000 -1074 97070 -40930 -44065 -939920
31118 31119180 732 -537 97680 -40771 -44038 -939869
31122 31122900 708 -488 97314 -40500 -43965 -939954
31126 31126616 732 -1049 97631 -40940 -43959 -940017
31129 31130368 244 -439 97485 -40620 -43427 -939960
31133 31134092 1416 -805 98071 -40678 -44155 -939982
31142 31143256 415 -390 98291 -40560 -43734 -939990
31145 31146972 48 -195 97509 -40122 -42923 -939927
31150 31150712 781 -756 96411 -40279 -42898 -939955
31154 31154460 683 -952 97778 -40603 -42761 -939958
31157 31158188 341 -1025 98339 -41142 -42257 -939975
31161 31161924 634 -463 97241 -40890 -42131 -939954
31165 31165648 659 -878 96777 -41046 -42043 -939880
31168 31169384 561 -537 96850 -40849 -41945 -939914
31172 31173120 219 -683 98291 -40816 -41322 -939931
31176 31176852 976 -781 97729 -41019 -41673 -939843
31182 31183076 122 -683 98339 -40915 -41036 -939904
31185 31186804 390 -830 98095 -40971 -40589 -940103
31190 31190532 268 -463 98217 -40591 -40061 -940175
31194 31194248 1416 -561 98022 -40476 -40907 -940164
31197 31197988 366 -317 98193 -39870 -40469 -940144
31201 31201700 463 -610 97192 -39829 -40162 -940133
31205 31205436 927 -1074 97973 -40284 -40440 -940113
31208 31209196 537 -610 98071 -40144 -40152 -940172
31212 31212912 1074 -1000 96997 -40537 -40668 -940226
31216 31216684 537 -488 96533 -40230 -40470 -940330
31220 31221152 317 -561 97314 -40135 -40083 -940322
31224 31224876 952 -683 97216 -40183 -40400 -940389
31227 31228616 708 -756 97460 -40384 -40443 -940204
31232 31232348 634 -1293 96997 -41153 -40373 -940342
31235 31236092 659 -488 97924 -40915 -40324 -940272
31239 31239824 683 -488 98022 -40650 -40258 -940356
31243 31243548 732 -952 97338 -41115 -40293 -940263
31246 31247276 585 -952 98144 -41381 -40262 -940163
31250 31251004 756 -463 98071 -41018 -40276 -940069
31254 31254728 952 -537 97631 -40774 -40566 -940082
31258 31259200 1074 -756 97582 -41057 -40882 -940133
31262 31262948 341 -512 97656 -40789 -40453 -940209
31265 31266656 927 -756 96948 -40916 -40801 -940207
31269 31270404 634 -1049 98388 -41280 -40621 -940169
31273 31274144 170 -463 98266 -41073 -40093 -940313
31277 31277864 1269 -976 97900 -41461 -40754 -940385
31281 31281624 390 -244 97314 -40866 -40372 -940511
31285 31285340 488 -537 97729 -40656 -40178 -940515
31288 31289056 683 -512 98120 -40406 -40126 -940494
31293 31293532 1293 -512 97387 -40130 -40811 -940657
31296 31297280 537 -1049 97558 -40525 -40501 -940777
31300 31301008 927 -927 97973 -40764 -40785 -940684
31304 31304748 585 -1074 96752 -41293 -40709 -940747
31307 31308512 830 -805 96704 -41661 -40951 -940946
31311 31312252 805 -952 97778 -42105 -41094 -940899
31315 31316000 830 -610 97167 -41870 -41168 -940928
31319 31319736 512 -683 97460 -41747 -40943 -940889
31323 31323468 317 -1000 98168 -42081 -40441 -940869
31326 31327208 708 -781 97558 -42085 -40518 -940804
31331 31331700 1171 -659 97363 -42079 -41046 -940704
31335 31335452 1391 -805 97851 -42199 -41900 -940799
31338 31339204 463 -390 96874 -41860 -41540 -940742
31342 31342912 1269 -683 96655 -41918 -42165 -940768
31345 31346660 634 -1074 97924 -42315 -42101 -940666
31349 31350408 512 -781 98193 -42411 -41942 -940664
31353 31354140 781 -683 97680 -42409 -42096 -940621
31356 31357876 708 -561 97387 -42417 -41946 -940725
31361 31361600 976 -1293 97827 -43120 -42264 -940675
31365 31365360 976 -976 98120 -43363 -42578 -940701
31369 31369844 146 -1147 98022 -43815 -41943 -940774
31373 31373604 390 -683 97192 -43749 -41471 -940869
31376 31377320 1171 -1123 96728 -44217 -42055 -940830
31380 31381088 1147 -561 96655 -43939 -42598 -940853
31384 31384836 341 -1098 97680 -44367 -42045 -940810
31387 31388568 268 -927 98266 -44502 -41518 -940833
31391 31392296 952 -781 96459 -44552 -41789 -940983
31395 31396040 805 -97 97265 -43884 -41908 -941009
31398 31399772 756 -854 97582 -44022 -42055 -941001
31403 31403512 952 -1098 97900 -44422 -42251 -940914
31414 31415280 952 -1049 96850 -44793 -42535 -940858
31418 31419052 781 -952 97436 -44982 -42586 -940831
31422 31422796 268 -268 97851 -44576 -41991 -940716
31425 31426504 1147 -561 97851 -44293 -42531 -940705
31429 31430252 781 -683 97802 -44089 -42537 -940679
31433 31433984 512 -341 96728 -43585 -42370 -940714
31436 31437692 1196 -683 97436 -43548 -42841 -940877
31440 31441436 878 -97 98266 -42678 -42842 -940875
31444 31445160 1074 -1049 98168 -43080 -43413 -940848
31454 31454452 659 -585 97509 -43069 -43335 -940844
31457 31458180 1416 -585 98071 -42815 -44076 -940769
31461 31461920 585 -952 97387 -43102 -43978 -940863
31465 31465656 1049 -708 96728 -43079 -44262 -940944
31468 31469404 463 -878 97485 -43167 -43965 -940851
31472 31473136 1147 -561 98583 -43006 -44375 -940831
31476 31476880 708 -512 97827 -42778 -44326 -940889
31479 31480608 634 -561 97778 -42706 -44083 -940802
31483 31484336 1074 -585 98168 -42532 -44500 -940800
31488 31488088 756 -659 97265 -42500 -44425 -940847
31494 31494496 781 -244 97802 -42062 -44561 -940734
31497 31498220 903 -1123 97729 -42632 -44698 -940820
31501 31501984 1318 -366 98535 -42260 -45266 -940604
31505 31505724 73 -244 98437 -41632 -44482 -940561
31508 31509436 610 -952 97656 -42006 -44305 -940615
31512 31513180 756 -537 97387 -41643 -44400 -940631
31516 31516900 1123 -634 97241 -41635 -44876 -940621
31519 31520660 830 -512 97363 -41352 -44861 -940667
31523 31524392 903 -732 97875 -41269 -45141 -940568
31527 31528120 854 -585 98486 -41130 -45197 -940630
31532 31532604 952 -610 96533 -40988 -45416 -940325
31536 31536340 634 -756 97729 -41056 -45279 -940402
31539 31540068 610 -537 97021 -40768 -45173 -940363
31543 31543804 659 -610 98120 -40661 -44982 -940394
31547 31547536 781 -170 97509 -40049 -44933 -940470
31550 31551276 952 -732 98706 -40033 -45093 -940450
31554 31555008 73 -854 97802 -40229 -44331 -940403
31558 31558748 317 -317 97485 -39847 -43783 -940360
31561 31562472 366 -976 97900 -40056 -43223 -940334
31565 31566192 659 -537 98437 -39849 -43140 -940273
31569 31570660 1123 -1000 97900 -40260 -43574 -940411
31574 31574432 903 -683 97021 -40256 -43830 -940391
31578 31578176 463 -366 98120 -39888 -43464 -940302
31581 31581892 268 -390 96801 -39619 -42878 -940380
31585 31585616 732 -756 97582 -39693 -42858 -940419
31588 31589340 1269 -732 98388 -39766 -43485 -940368
31592 31593096 805 -634 97241 -39779 -43649 -940402
31596 31596836 488 -244 97509 -39311 -43391 -940259
31599 31600552 805 -830 97607 -39380 -43505 -940251
31603 31604296 488 -781 96362 -39366 -43211 -940188
31607 31608768 1049 -317 98168 -38884 -43519 -940271
31611 31612508 976 -732 97485 -39033 -43725 -940342
31616 31616244 610 -146 97778 -38347 -43525 -940359
31619 31619968 878 -683 96728 -38468 -43655 -940357
31623 31623720 512 -952 97534 -38758 -43355 -940355
31627 31627452 732 -488 98120 -38594 -43433 -940308
31630 31631172 1098 0 97582 -37810 -43885 -940464
31634 31634768 512 -854 97534 -37901 -43557 -940399
31637 31638488 927 -1000 97705 -38259 -43761 -940429
31642 31642992 1123 -1318 98095 -39046 -44198 -940458
31646 31646768 976 -756 97802 -39206 -44508 -940520
31649 31650508 610 -585 98364 -39087 -44240 -940451
31653 31654232 1660 -585 97265 -39054 -45334 -940363
31656 31657980 219 -610 97680 -38941 -44698 -940330
31661 31661716 610 -415 98779 -38686 -44578 -940115
31665 31665440 1049 -708 98461 -38799 -44918 -940086
31668 31669184 512 -1123 97070 -39409 -44548 -939998
31672 31672928 97 -976 98168 -39702 -43658 -940057
31676 31676656 488 -585 97875 -39500 -43353 -940084
31680 31681124 610 -878 97631 -39742 -43143 -940203
31684 31684868 708 -1220 97802 -40306 -43079 -940133
31687 31688604 1098 97 97827 -39523 -43391 -940082
31691 31692336 390 -903 97363 -39635 -42996 -940233
31695 31696060 805 -1074 98657 -40130 -43037 -940222
31698 31699816 268 -488 97753 -40042 -42364 -940220
31703 31703536 1171 -805 97705 -40142 -42883 -940205
31707 31707288 878 -610 98461 -40162 -43076 -940295
31710 31711024 927 -537 96655 -40014 -43327 -940238
31714 31714760 390 -1074 97753 -40495 -42964 -940250
31725 31726344 1416 -390 98217 -40142 -43676 -940194
31729 31730100 683 -463 96923 -39866 -43598 -940271
31733 31733820 1586 -756 97949 -39900 -44596 -940306
31736 31737572 634 -634 97119 -39869 -44454 -940359
31740 31741304 1000 -634 97167 -39803 -44742 -940371
31745 31745052 683 -634 97094 -39761 -44766 -940360
31748 31748784 561 -585 97509 -39678 -44651 -940242
31752 31752512 1074 -634 96899 -39546 -45101 -940282
31755 31756256 195 -219 97143 -39167 -44461 -940244
31759 31759996 1025 -732 96972 -39202 -44725 -940175
31768 31769368 561 -146 97241 -38793 -44830 -940198
31772 31773104 561 -708 96704 -38924 -44573 -940146
31776 31776828 732 -830 97509 -39013 -44538 -940246
31779 31780568 952 -195 97265 -38404 -44698 -940347
31783 31784300 805 -512 97558 -38260 -44715 -940323
31787 31788028 927 -1269 97094 -39012 -44970 -940258
31791 31791784 1049 -659 98388 -38999 -45294 -940286
31795 31795548 1660 -463 97949 -38771 -46479 -940275
31798 31799284 1074 -878 97924 -38998 -46780 -940215
31804 31804712 1220 -732 98071 -39089 -47256 -940288
31807 31808460 1342 -488 96655 -38827 -47844 -940311
31811 31812192 1171 -1025 98803 -39168 -48199 -940272
31815 31815960 756 -805 97802 -39369 -48154 -940284
31818 31819688 805 -1000 98120 -39853 -48025 -940148
31822 31823444 512 -1000 97436 -40143 -47662 -940140
31826 31827188 659 -585 97607 -40011 -47402 -940001
31830 31830912 537 -1000 97436 -40388 -47124 -940075
31834 31834668 830 -830 97167 -40631 -47155 -940006
31838 31838416 634 -390 97802 -40259 -47078 -940005
31842 31842884 927 -732 98315 -40225 -47226 -939918
31846 31846624 976 -512 97119 -40080 -47434 -939972
31849 31850352 683 -732 98071 -40063 -47249 -939939
31853 31854084 1074 -439 97973 -39843 -47507 -939938
31857 31857828 585 -537 97778 -39671 -47388 -939913
31860 31861548 219 -952 98022 -40021 -46656 -939948
31864 31865288 878 -170 97705 -39377 -46682 -940038
31868 31869016 830 -341 97241 -38997 -46754 -940073
31872 31872756 683 -830 97631 -39244 -46630 -939918
31876 31876492 732 -1025 98071 -39702 -46567 -940008
31880 31880980 1000 -415 97338 -39451 -46863 -940177
31884 31884732 1000 -292 97582 -39047 -47093 -940093
31888 31888480 976 -854 97021 -39329 -47336 -940206
31891 31892228 976 -903 98193 -39519 -47458 -940211
31895 31895968 390 -366 97827 -39248 -46962 -940259
31899 31899680 683 -488 96997 -38941 -46809 -940272
31902 31903400 1293 -512 97485 -38813 -47359 -940325
31906 31907140 1098 -122 97705 -38248 -47763 -940282
31909 31910892 1220 -805 97094 -38483 -48339 -940294
31913 31914652 634 -732 97924 -38623 -48146 -940361
31919 31919128 756 -634 97705 -38542 -48161 -940340
31922 31922860 1074 -708 97778 -38493 -48493 -940320
31926 31926600 708 -683 97460 -38541 -48356 -940442
31929 31930324 952 -1025 97460 -39088 -48491 -940413
31933 31934084 537 -561 97509 -39009 -48153 -940289
31937 31937808 610 -1074 98730 -39565 -47917 -940297
31940 31941548 463 -830 97485 -39780 -47589 -940295
31944 31945276 561 -415 97534 -39604 -47214 -940110
31948 31948996 878 -463 97167 -39341 -47356 -940053
31951 31952724 561 -1098 97802 -39908 -47019 -940015
31956 31957220 219 -537 97460 -39570 -46226 -940096
31960 31960936 805 -317 97314 -39146 -46239 -939978
31964 31964684 170 -952 98339 -39572 -45572 -940023
31968 31968416 366 -781 98486 -39672 -45119 -939962
31971 31972140 488 -659 97314 -39685 -44751 -939880
31975 31975860 781 -781 97070 -39823 -44774 -939865
31979 31979612 415 -927 97631 -40120 -44384 -939996
31982 31983352 341 -634 97314 -40071 -43882 -939982
31986 31987076 805 -195 96972 -39496 -43898 -940109
31990 31991564 268 -732 98095 -39718 -43269 -940089
31994 31995292 1000 -610 97656 -39680 -43556 -940215
31998 31999044 48 -634 98022 -39641 -42749 -940183
32002 32002784 878 -830 97143 -39912 -42818 -940083
32006 32006528 1098 -1049 97265 -40391 -43256 -940109
32010 32010296 903 -73 97143 -39629 -43453 -940025
32013 32014036 463 -537 97753 -39502 -43146 -940121
32017 32017752 805 -854 98046 -39635 -43199 -940074
32020 32021492 463 -48 97778 -38882 -42969 -939976
32024 32025220 439 24 97534 -38064 -42602 -939956
32036 32037760 341 -170 97778 -37576 -42099 -939859
32040 32041484 1074 -903 97778 -37842 -42505 -939991
32045 32045236 830 -708 97558 -37930 -42608 -940026
32048 32048972 1025 -732 97680 -38001 -42959 -939969
32052 32052720 1147 -170 97949 -37356 -43389 -939991
32056 32056464 488 -610 97729 -37383 -43162 -939939
32059 32060188 390 -756 97119 -37583 -42748 -939833
32063 32063920 878 -634 97192 -37544 -43029 -939941
32067 32067652 463 -732 97265 -37593 -42666 -939977
32070 32071372 878 -317 97412 -37090 -42961 -940066
32079 32080824 610 -1123 98095 -37351 -42911 -939979
32083 32084576 756 -219 97241 -36901 -43028 -939954
32088 32088312 732 -805 97436 -37223 -42930 -939888
32091 32092040 708 -488 97119 -37108 -42866 -939844
32095 32095768 1147 -903 97998 -37409 -43275 -939755
32099 32099520 683 -1074 97973 -37900 -43191 -939731
32102 32103264 561 -1220 97363 -38537 -42983 -939668
32106 32107016 512 -683 97070 -38547 -42684 -939598
32110 32110736 244 -732 97021 -38641 -42151 -939509
32113 32114472 390 -1025 96899 -39039 -41795 -939642
32119 32120084 73 -219 97021 -38548 -41293 -939532
32122 32123800 1293 -756 97436 -38548 -41846 -939689
32126 32127540 927 -341 97143 -38188 -42172 -939618
32131 32131268 463 -683 97802 -38257 -41872 -939685
32134 32134992 -48 -659 97973 -38365 -41026 -939683
32138 32138736 463 -439 97363 -38151 -40743 -939792
32142 32142452 634 -781 97412 -38298 -40510 -939744
32145 32146192 708 48 97338 -37481 -40486 -939804
32149 32149924 1025 -659 97460 -37547 -40842 -939770
32153 32153680 1049 -585 97436 -37468 -41319 -939787
32157 32158176 1049 -976 97705 -37960 -41874 -939754
32161 32161928 708 -292 97412 -37442 -41950 -939849
32164 32165656 537 -585 97216 -37355 -41488 -939780
32168 32169388 683 -561 97705 -37326 -41467 -939784
32173 32173124 1049 -1074 97998 -37823 -41955 -939824
32176 32176892 512 -488 97778 -37615 -41855 -939810
32180 32180612 976 -268 97241 -37264 -42111 -939854
32184 32184344 512 -610 97460 -37295 -41738 -939857
32187 32188068 683 -634 97241 -37358 -41805 -939812
32192 32192560 927 -24 95971 -36658 -42042 -939847
32195 32196292 683 -732 98095 -36715 -42006 -939705
32199 32200020 1025 -732 97656 -36849 -42370 -939644
32202 32203760 1049 -463 97387 -36632 -42893 -939601
32206 32207500 952 -585 96972 -36538 -43161 -939550
32210 32211244 683 -830 97387 -36869 -43075 -939480
32214 32214976 1098 -439 98413 -36809 -43442 -939501
32218 32218716 1220 -659 97412 -36872 -43986 -939492
32222 32222468 219 -561 97387 -36746 -43441 -939601
32225 32226192 756 -952 97485 -37035 -43517 -939574
32230 32230676 610 -317 97900 -36744 -43439 -939670
32233 32234396 585 -634 97851 -36711 -43168 -939638
32237 32238124 463 -952 97582 -37077 -42844 -939654
32241 32241856 1147 -781 97534 -37236 -43318 -939648
32244 32245616 1123 -927 96850 -37571 -43727 -939762
32248 32249376 756 -903 97216 -37783 -43799 -939687
32252 32253112 610 -976 98120 -38191 -43542 -939754
32256 32256844 561 -366 97753 -37804 -43248 -939706
32260 32260556 976 -878 97680 -38133 -43534 -939773
32264 32264300 659 -952 97607 -38489 -43469 -939767
32268 32268804 756 -439 98583 -38236 -43450 -939850
32272 32272528 805 -708 97705 -38239 -43406 -939803
32275 32276264 122 -122 98193 -37480 -42657 -939966
32279 32279996 708 -366 98266 -37180 -42711 -939928
32283 32283716 439 -585 97729 -37128 -42381 -939803
32286 32287452 976 -439 97314 -36933 -42708 -939679
32290 32291184 170 -878 97705 -37217 -42086 -939618
32294 32294920 439 -488 97582 -37064 -41667 -939644
32297 32298636 830 -341 97412 -36695 -41811 -939603
32302 32302364 634 -390 97656 -36443 -41824 -939593
32306 32306828 1123 -634 97949 -36509 -42227 -939735
32310 32310584 170 -1440 97412 -37496 -41638 -939770
32313 32314316 390 -756 98266 -37689 -41369 -939811
32317 32318048 1782 -1049 98022 -38115 -42674 -939815
32321 32321816 585 -585 98535 -38110 -42502 -939846
32324 32325536 708 -97 98510 -37336 -42435 -939917
32328 32329256 903 -659 97705 -37369 -42658 -939945
32332 32333000 805 -756 97973 -37530 -42802 -939999
32335 32336732 683 -683 98217 -37541 -42744 -940027
32339 32340472 781 -634 97460 -37573 -42778 -939934
32352 32352896 1416 -683 97705 -37642 -43173 -939763
32356 32356644 952 48 98437 -36913 -43468 -939803
32359 32360372 585 -952 97290 -37319 -43262 -939856
32363 32364104 976 -537 97656 -37036 -43442 -939964
32367 32367824 781 -732 96923 -37188 -43560 -939922
32370 32371548 1123 -976 97949 -37653 -43962 -939889
32374 32375312 805 -512 97778 -37421 -44009 -939856
32378 32379048 1098 -1074 97851 -37841 -44425 -939831
32381 32382812 219 -366 97656 -37596 -43661 -939898
32392 32392368 561 -610 99023 -37363 -43318 -940291
32395 32396084 659 -830 97290 -37660 -43354 -940192
32399 32399820 976 -976 97167 -38099 -43626 -940204
32403 32403560 585 -805 97265 -38309 -43399 -940230
32406 32407300 537 -805 97851 -38486 -43065 -940265
32410 32411036 878 -268 97265 -38033 -43213 -940286
32414 32414772 1123 -512 97192 -37801 -43561 -940280
32417 32418512 1123 -1318 97753 -38692 -44073 -940333
32421 32422280 585 -1293 97778 -39399 -43928 -940364
32425 32426024 610 -830 96533 -39561 -43697 -940185
32432 32432232 1342 -732 97460 -39578 -44439 -940218
32435 32435980 708 -1074 97705 -39933 -44525 -940113
32439 32439724 1171 -830 97412 -40155 -44991 -940290
32443 32443480 1318 -683 98120 -40119 -45663 -940188
32446 32447236 585 -390 97705 -39847 -45521 -940100
32450 32450956 1269 -805 98071 -40077 -46135 -940067
32454 32454712 805 -244 97753 -39603 -46144 -940024
32457 32458464 805 -463 97631 -39397 -46191 -940168
32461 32462196 97 -1049 97582 -39811 -45324 -940158
32465 32465936 390 -610 97900 -39738 -44911 -940092
32470 32470416 634 -732 98559 -39825 -44797 -940075
32474 32474140 170 -927 97094 -40052 -44193 -940096
32477 32477868 585 -781 97290 -40124 -43976 -940039
32481 32481600 903 -634 97631 -40098 -44166 -940056
32484 32485332 659 -781 98071 -40295 -44014 -939899
32488 32489072 244 -1000 96655 -40658 -43447 -940050
32492 32492816 976 -903 97436 -40871 -43745 -940163
32495 32496556 634 -585 96826 -40712 -43652 -940118
32499 32500284 1196 -878 97656 -40893 -44088 -939921
32503 32504036 585 -390 97900 -40546 -43857 -939910
32507 32508500 537 -1245 97973 -41185 -43773 -939846
32512 32512244 732 -634 97949 -40895 -43803 -939692
32515 32515968 756 -976 98706 -41193 -43801 -939733
32519 32519720 561 -488 97875 -40901 -43609 -939809
32523 32523432 1171 -415 97949 -40645 -44041 -939817
32526 32527180 708 -1098 97949 -41052 -43918 -939833
32530 32530928 1098 -463 97534 -40834 -44255 -939845
32534 32534668 1171 -537 97241 -40673 -44733 -939899
32537 32538412 1464 -561 97607 -40340 -45529 -939885
32541 32542152 1098 -537 97338 -40143 -45935 -939920
32545 32546644 585 -683 97216 -40218 -45773 -940058
32549 32550376 585 -659 97582 -40210 -45618 -940057
32553 32554112 537 -903 97558 -40575 -45325 -940091
32557 32557844 1269 -1171 97705 -41108 -45843 -940156
32561 32561620 24 -683 96826 -41167 -45045 -940178
32565 32565344 610 -610 98144 -40981 -44893 -940236
32568 32569084 1049 -781 97363 -41111 -45279 -940313
32572 32572836 878 -830 97607 -41290 -45420 -940252
32576 32576580 659 -537 97705 -41104 -45240 -940324
32580 32581056 219 -585 97558 -40964 -44642 -940426
32584 32584788 903 -244 98388 -40452 -44865 -940452
32587 32588524 732 -634 97436 -40474 -44931 -940401
32591 32592256 854 -732 98364 -40486 -45024 -940436
32595 32595992 927 -1123 97705 -40988 -45314 -940489
32599 32599748 488 -683 98657 -40933 -44838 -940365
32603 32603464 390 -537 97582 -40754 -44472 -940323
32606 32607176 830 -927 97192 -41127 -44513 -940280
32610 32610912 634 -610 98583 -40877 -44415 -940254
32614 32614640 903 -927 96899 -41121 -44577 -940229
32618 32619124 439 -585 96801 -41022 -44117 -940082
32622 32622848 390 -366 97851 -40653 -43679 -940044
32625 32626552 756 -659 97631 -40549 -43755 -940200
32629 32630288 854 -683 96801 -40565 -43802 -940304
32633 32634020 610 -1147 97851 -41053 -43614 -940216
32636 32637772 537 -634 98266 -41010 -43519 -940137
32641 32641492 878 -585 97900 -40885 -43588 -940099
32645 32645228 317 -854 96923 -41100 -43079 -940153
32648 32648964 463 -512 97436 -40947 -42763 -940248
32652 32652688 415 415 97241 -39630 -42452 -940270
32663 32664432 610 -585 97875 -39574 -42204 -940466
32667 32668164 1196 -341 97607 -39207 -42805 -940409
32671 32671904 781 -1293 96997 -39915 -42873 -940504
32674 32675660 659 -878 97631 -40149 -42832 -940496
32678 32679408 805 -976 97265 -40456 -42925 -940595
32683 32683160 927 -1000 97338 -41005 -43129 -940544
32686 32686912 927 -1049 97094 -41347 -43326 -940475
32690 32690660 878 -708 97119 -41450 -43444 -940487
32694 32694400 854 -610 97705 -41377 -43694 -940472
32697 32698136 805 -415 96850 -40987 -43804 -940446
32707 32707804 268 -976 96948 -41323 -43086 -940606
32710 32711532 1025 -659 97265 -41363 -43433 -940653
32714 32715296 512 -1147 98388 -41860 -43252 -940737
32718 32719044 927 -708 98559 -41995 -43340 -940749
32721 32722772 463 -366 100122 -41652 -43077 -940851
32726 32726496 1074 -317 98925 -40876 -43616 -940775
32730 32730244 2099 122 95874 -39801 -45307 -940806
32733 32733976 1831 -830 94995 -39982 -46538 -940883
32737 32737740 -73 -1464 94531 -41039 -45519 -940864
32743 32744120 -732 -1318 99658 -41860 -43894 -940870
32747 32747876 341 -488 99951 -41561 -43511 -941001
32750 32751576 1318 537 97949 -39936 -44260 -940968
32754 32755308 1293 341 96044 -38777 -44961 -940935
32758 32759044 976 -756 97119 -39003 -45157 -941044
32761 32762768 341 -1025 97485 -39422 -44680 -940950
32765 32766512 1245 -805 98779 -39502 -45202 -940871
32770 32770280 439 -976 98999 -39842 -44847 -940838
32773 32774012 830 -952 98486 -40189 -45001 -940769
32777 32777752 1342 -488 98632 -39854 -45746 -940703
32781 32782232 927 -488 96679 -39637 -46111 -940622
32785 32785964 170 -1660 96630 -40723 -45309 -940510
32789 32789712 366 -390 97460 -40467 -44820 -940431
32792 32793416 976 -341 97265 -40061 -45147 -940374
32796 32797144 781 -292 99047 -39549 -45086 -940354
32800 32800876 439 -634 98779 -39499 -44797 -940375
32803 32804604 219 -1025 99072 -39740 -44264 -940380
32807 32808360 1245 -781 96264 -39898 -44861 -940328
32812 32812120 1513 -1245 95800 -40554 -45649 -940358
32815 32815884 805 24 96801 -39810 -45559 -940564
32820 32820360 219 -732 97900 -39847 -44924 -940470
32823 32824088 219 -1171 98388 -40296 -44396 -940511
32827 32827840 732 -830 99755 -40354 -44444 -940446
32831 32831572 1074 -537 96728 -40125 -44801 -940508
32834 32835324 1440 415 96435 -38949 -45659 -940573
32838 32839056 805 0 97412 -38148 -45605 -940489
32841 32842628 24 -463 99072 -38030 -44668 -940530
32845 32846344 415 -903 98144 -38450 -44237 -940501
32849 32850080 1269 -976 98486 -38741 -44920 -940450
32852 32853828 927 -585 97387 -38589 -45256 -940264
32858 32858312 927 -610 97680 -38498 -45291 -940292
32861 32862040 512 -1171 96582 -39094 -44928 -940205
32865 32865788 1123 -756 96679 -39228 -45267 -940194
32869 32869548 1367 -634 98657 -39028 -45936 -940101
32872 32873300 585 -610 99267 -38893 -45737 -940057
32876 32877028 341 24 98315 -38158 -45248 -940096
32880 32880736 292 -463 97290 -37924 -44760 -940109
32883 32884456 1660 -488 96337 -37848 -45649 -940186
32887 32888196 830 -292 96411 -37561 -45696 -940253
32891 32891932 463 -659 97875 -37698 -45317 -940284
32896 32896412 439 -488 97973 -37501 -44896 -940373
32900 32900128 1147 -610 98291 -37310 -45417 -940362
32903 32903880 122 -634 97290 -37294 -44737 -940269
32907 32907620 1464 -610 96777 -37298 -45519 -940341
32910 32911356 927 -244 96508 -36941 -45639 -940321
32914 32915092 219 -366 96948 -36552 -44933 -940435
32918 32918804 195 -634 98339 -36547 -44307 -940434
32921 32922540 683 -1074 98266 -37075 -44213 -940602
32925 32926292 1489 -512 97192 -36891 -45169 -940771
32929 32930764 219 -903 97192 -37278 -44597 -940897
32933 32934496 48 -1318 97192 -38213 -43817 -940889
32937 32938244 244 -952 96752 -38535 -43231 -940692
32941 32941968 976 -1147 98583 -39283 -43478 -940690
32945 32945728 927 -1147 98510 -39707 -43581 -940627
32949 32949484 1000 -1196 98413 -40302 -43947 -940616
32952 32953248 708 -830 97265 -40480 -43963 -940468
32956 32956984 1098 -463 96899 -40189 -44437 -940496
32960 32960728 585 -537 96508 -39997 -44209 -940481
32963 32964440 463 -24 97021 -39226 -43718 -940394
32975 32976032 610 -976 97729 -39489 -44087 -940523
32978 32979772 1220 -708 96826 -39455 -44651 -940558
32983 32983524 976 48 95068 -38621 -44990 -940529
32987 32987252 1049 -292 97265 -38297 -45215 -940569
32990 32990992 439 -292 98266 -37897 -44686 -940549
32994 32994712 341 -1147 99462 -38515 -44210 -940547
32998 32998456 292 -732 98852 -38608 -43800 -940587
33001 33002180 830 -830 98681 -38889 -43990 -940695
33005 33005924 512 -390 96484 -38536 -43734 -940739
33008 33009636 512 -292 96972 -38192 -43402 -940697
33018 33019388 805 -854 98266 -38439 -43220 -940871
33022 33023136 512 -488 98657 -38268 -43036 -940845
33026 33026848 878 -390 97241 -37999 -43181 -940928
33030 33030584 1025 -683 96850 -38057 -43523 -940913
33034 33034332 488 -366 96435 -37789 -43215 -940907
33037 33038052 805 -805 96850 -37910 -43352 -940874
33041 33041796 1000 -1220 98803 -38603 -43521 -940877
33045 33045564 1391 -634 98461 -38588 -44289 -940876
33048 33049320 708 -366 98974 -38079 -44229 -940886
33052 33053036 830 -537 98461 -37893 -44370 -940848
33057 33058460 781 -1367 96972 -38714 -44571 -940823
33061 33062212 1440 -805 97119 -38944 -45267 -940817
33064 33065956 610 -1098 97338 -39555 -45033 -940876
33069 33069708 292 -976 98583 -39917 -44450 -940929
33073 33073444 854 -561 97656 -39836 -44654 -940918
33076 33077180 1464 -683 97851 -39805 -45489 -940739
33080 33080932 1171 -756 97705 -39891 -45906 -940676
33084 33084684 439 -927 97241 -40236 -45579 -940725
33087 33088400 219 -561 97900 -39861 -44763 -940796
33091 33092120 170 -878 98217 -40139 -43974 -940827
33095 33096604 1147 -830 97802 -40279 -44404 -940782
33099 33100360 927 -976 98071 -40675 -44756 -940737
33103 33104104 756 -610 97729 -40519 -44816 -940654
33106 33107832 1196 -366 96533 -40181 -45236 -940674
33111 33111560 732 -463 97070 -39934 -45277 -940554
33115 33115280 708 -488 98413 -39700 -45165 -940635
33118 33119004 585 -708 98120 -39590 -44923 -940559
33122 33122736 292 -1049 98657 -39995 -44383 -940526
33126 33126480 683 -537 97143 -39712 -44325 -940405
33130 33130968 1025 -756 97167 -39793 -44487 -940318
33134 33134712 878 -317 96752 -39409 -44764 -940280
33137 33138444 366 -317 97900 -38999 -44316 -940296
33141 33142168 -73 -292 97973 -38638 -43381 -940336
33145 33145904 781 -122 98266 -38075 -43349 -940362
33148 33149648 903 -781 98046 -38160 -43493 -940245
33153 33153392 927 -1269 97436 -38953 -43688 -940225
33157 33157148 1440 -244 97314 -38466 -44596 -940174
33160 33160888 732 -122 97558 -37834 -44583 -940214
33164 33164632 756 24 97680 -37081 -44540 -940231
33168 33169084 903 -1025 98217 -37476 -44751 -940278
33172 33172840 1318 -903 98046 -37773 -45398 -940258
33176 33176592 781 -537 97338 -37633 -45428 -940216
33179 33180332 1049 -390 97705 -37368 -45709 -940220
33183 33184080 512 -1196 98071 -37956 -45287 -940246
33186 33187808 537 -512 98413 -37826 -45066 -940171
33190 33191520 1000 -415 97656 -37604 -45268 -940193
33195 33195260 781 -634 98510 -37442 -45182 -940094
33198 33198996 708 -585 98095 -37366 -45226 -940055
33202 33202728 634 -805 98339 -37414 -44925 -940181
33206 33207196 903 -1098 97436 -38030 -44928 -940002
33210 33210952 878 -488 97680 -37806 -45115 -939903
33214 33214676 659 -634 96826 -37860 -45029 -939897
33217 33218408 756 -952 98486 -38151 -44974 -939840
33221 33222148 634 -366 98315 -37721 -44806 -939889
33225 33225864 976 -1123 97949 -38249 -45124 -939837
33228 33229620 708 -708 96362 -38333 -45035 -939914
33232 33233348 976 -878 98022 -38594 -45236 -939917
33236 33237096 634 -1098 96411 -39224 -45056 -939940
33240 33240848 854 -415 96655 -39039 -45115 -939962
33245 33245336 805 -805 98071 -39194 -45155 -940009
33248 33249096 1025 -854 97924 -39399 -45441 -940007
33252 33252860 1123 -1000 97582 -39656 -45864 -940010
33256 33256624 610 -1416 98120 -40566 -45611 -940013
33259 33260368 1098 -927 97534 -40899 -45954 -940042
33263 33264128 1269 -390 97875 -40561 -46527 -940068
33267 33267876 1367 -854 97753 -40810 -47222 -939961
33270 33271628 561 -488 97338 -40659 -46939 -940032
33274 33275352 976 -1342 97753 -41402 -47110 -940026
33287 33287928 878 -585 98046 -41260 -46692 -939980
33291 33291676 341 -390 98095 -40878 -46171 -940002
33295 33295388 1049 -683 97729 -40857 -46394 -939991
33298 33299140 732 -244 97680 -40309 -46308 -939885
33302 33302864 708 -561 97363 -40222 -46122 -939838
33305 33306580 1147 -830 97973 -40322 -46497 -939832
33309 33310340 439 -781 98095 -40578 -46135 -939849
33313 33314068 488 -781 97753 -40624 -45767 -939742
33316 33317788 317 -561 98388 -40322 -45240 -939764
33320 33321508 1220 -927 98022 -40698 -45928 -939716
33331 33331388 512 -561 96801 -40442 -45887 -939725
33334 33335104 732 -781 97119 -40549 -45870 -939699
33338 33338844 756 -683 98608 -40578 -45824 -939583
33342 33342576 585 -830 97680 -40709 -45640 -939678
33345 33346316 854 -781 98876 -40896 -45766 -939517
33349 33350064 195 -659 96777 -40895 -45038 -939557
33353 33353800 1000 -268 97241 -40367 -45295 -939583
33356 33357548 854 -805 96948 -40656 -45328 -939361
33360 33361288 463 -561 96508 -40510 -44986 -939323
33364 33365016 659 -610 97485 -40483 -44916 -939297
33370 33370624 512 -268 97290 -40117 -44660 -939401
33374 33374340 659 -537 97534 -40032 -44515 -939409
33377 33378068 292 -48 98266 -39360 -44045 -939303
33381 33381804 1538 -952 97949 -39548 -44981 -939388
33385 33385556 976 -537 97875 -39467 -45221 -939245
33388 33389296 805 -488 98022 -39189 -45295 -939249
33392 33393036 1074 -1123 97851 -39720 -45693 -939252
33396 33396808 927 -463 97143 -39402 -45914 -939159
33399 33400544 -24 -781 97460 -39407 -45088 -939139
33403 33404272 805 -854 97778 -39665 -45108 -939147
33408 33408768 341 -439 97436 -39292 -44699 -938832
33412 33412480 537 -878 98339 -39625 -44422 -938890
33416 33416212 561 -854 98144 -39794 -44257 -938792
33419 33419940 488 -903 98535 -39954 -44000 -938912
33423 33423660 512 -976 97119 -40316 -43712 -938865
33426 33427388 463 48 97802 -39435 -43400 -938753
33430 33431108 854 -708 97973 -39672 -43550 -938916
33434 33434848 219 -976 97827 -39960 -42982 -938901
33437 33438576 878 -952 98315 -40247 -43064 -938899
33441 33442324 659 -1000 98242 -40542 -42963 -938911
33445 33446820 317 -244 97705 -40066 -42519 -939013
33449 33450544 585 -537 97924 -39954 -42377 -938987
33454 33454272 1586 -634 97290 -39938 -43413 -938954
33457 33458024 537 -488 98193 -39764 -43065 -939086
33461 33461744 537 -683 99414 -39658 -42809 -939085
33465 33465476 1098 -170 98339 -39069 -43243 -939115
33468 33469228 1147 97 96289 -38094 -43924 -939071
33472 33472968 1049 -927 96215 -38509 -44328 -939046
33476 33476720 317 -1391 96240 -39427 -43775 -939123
33479 33480460 -708 -1489 98144 -40515 -41978 -939066
33484 33484964 1489 -24 99096 -39674 -42819 -939039
33487 33488696 1513 122 97534 -38701 -43843 -938982
33491 33492428 1342 -195 96484 -38166 -44664 -938901
33496 33496184 317 -903 97753 -38506 -43972 -938918
33499 33499908 756 -683 97973 -38662 -43979 -938885
33503 33503648 1660 -878 98730 -38882 -45013 -939012
33507 33507400 1416 -317 97900 -38570 -45802 -938992
33510 33511144 756 73 96874 -37808 -45794 -939112
33514 33514860 0 -585 96533 -37842 -44838 -939143
33518 33519184 878 -1489 97680 -38907 -44906 -939156
33522 33522928 439 -708 99243 -38884 -44583 -939113
33525 33526644 805 -732 97729 -39037 -44769 -939087
33529 33530384 1098 -341 96704 -38698 -45135 -939081
33533 33534124 1123 -390 98315 -38433 -45417 -938981
33537 33537864 122 -1318 99218 -39277 -44680 -939101
33541 33541620 146 -1367 96874 -40127 -44090 -939123
33545 33545360 1000 -1440 96679 -41041 -44364 -939066
33548 33549124 732 -463 96069 -40804 -44261 -938863
33552 33552840 756 -781 97802 -40804 -44223 -938729
33556 33557320 341 -1342 98950 -41520 -43915 -938660
33560 33561052 756 -1562 98583 -42533 -43988 -938622
33564 33564808 659 -1538 98022 -43314 -43933 -938597
33567 33568552 756 -561 97070 -43159 -43829 -938589
33571 33572276 1074 -268 96630 -42763 -44245 -938638
33575 33576032 537 -488 98461 -42548 -43968 -938563
33579 33579752 732 -1611 97680 -43453 -43964 -938652
33583 33583500 390 -1220 96874 -43956 -43534 -938779
33587 33587236 585 -1147 97143 -44354 -43278 -938746
33590 33590984 1196 219 97387 -43179 -43839 -938762
33602 33603408 708 -634 98291 -43595 -43485 -938866
33606 33607148 634 -488 97753 -43305 -43369 -938901
33610 33610872 1074 -585 98193 -43073 -43818 -938909
33613 33614616 390 -561 97485 -42890 -43599 -938943
33617 33618344 756 -561 97436 -42783 -43569 -938942
33622 33622072 805 -927 97167 -43135 -43511 -938903
33625 33625808 1635 -585 97290 -42819 -44520 -938865
33629 33629552 1367 170 98486 -41868 -45230 -938877
33633 33633292 146 -415 97607 -41608 -44462 -938885
33636 33637020 366 -122 97412 -40884 -44088 -938767
33646 33646964 683 -781 97949 -41142 -43981 -938680
33650 33650700 512 -878 97460 -41344 -43722 -938587
33653 33654440 463 -1367 98242 -42052 -43503 -938664
33657 33658172 1513 -122 97363 -41378 -44464 -938686
33660 33661912 1538 -415 97802 -41091 -45509 -938684
33665 33665656 1684 -390 98339 -40647 -46659 -938859
33669 33669388 1098 -659 96850 -40632 -46958 -938821
33672 33673136 659 -1025 97485 -41102 -46843 -938801
33676 33676888 830 -732 97558 -41165 -46840 -938762
33682 33683104 1342 -1049 98486 -41680 -47368 -938869
33686 33686860 708 -903 98193 -41798 -47373 -938936
33689 33690580 146 -903 97143 -42019 -46706 -938898
33693 33694320 659 -854 96435 -42206 -46413 -939000
33697 33698052 1562 48 97412 -41291 -47314 -939085
33700 33701792 1098 -488 96215 -41077 -47491 -939132
33704 33705532 708 -976 97998 -41383 -47370 -939137
33709 33709284 683 -854 98608 -41589 -47146 -939159
33712 33713012 1074 -488 97485 -41385 -47520 -939175
33716 33716748 1000 -756 97558 -41478 -47782 -939004
33720 33721240 830 -659 97509 -41508 -47761 -939027
33724 33724984 97 -781 97094 -41689 -46826 -938958
33728 33728716 903 -390 97192 -41361 -46924 -938860
33731 33732440 878 -415 99047 -40955 -46991 -938931
33735 33736184 927 -683 98828 -40911 -47257 -938834
33739 33739920 1049 -1098 97314 -41409 -47567 -938786
33742 33743692 659 -903 97338 -41620 -47440 -938809
33746 33747424 683 -1147 96093 -42201 -47276 -938826
33751 33751168 1367 -561 98022 -42176 -47929 -938746
33754 33754916 463 -561 97802 -42026 -47401 -938781
33759 33759388 463 -488 97949 -41590 -47026 -938852
33762 33763100 781 -610 98095 -41352 -46963 -938801
33766 33766844 1025 -854 98193 -41486 -47131 -938864
33770 33770592 1147 -756 96777 -41571 -47530 -938886
33773 33774356 805 -366 96850 -41083 -47509 -938920
33777 33778092 659 -244 97509 -40634 -47218 -939061
33781 33781812 415 -585 97949 -40494 -46836 -939023
33784 33785536 659 -268 97485 -40030 -46693 -939100
33788 33789260 1049 -781 98242 -40082 -47033 -939108
33792 33793008 805 -781 96801 -40161 -47114 -939180
33797 33797512 0 -537 96801 -40012 -46059 -939257
33800 33801080 878 -659 97705 -40027 -46103 -939176
33804 33804820 830 -1074 97705 -40478 -46187 -939215
33808 33808576 878 -708 97875 -40564 -46297 -939113
33811 33812324 634 -195 97778 -39941 -46235 -939056
33815 33816060 952 -561 97290 -39750 -46352 -938954
33819 33819792 830 -1074 97607 -40193 -46391 -938985
33822 33823552 317 -1318 97241 -40949 -45928 -938909
33826 33827288 732 -830 98413 -41178 -45988 -938849
33830 33831768 366 -708 98852 -41229 -45350 -938810
33835 33835496 610 -903 97778 -41464 -45153 -938674
33839 33839240 73 -634 98632 -41372 -44421 -938768
33842 33842972 878 -390 97460 -40951 -44435 -938736
33846 33846700 976 -561 97363 -40891 -44777 -938785
33850 33850432 488 -585 97314 -40863 -44484 -938861
33853 33854156 732 -341 98095 -40361 -44367 -938829
33857 33857872 585 -903 99023 -40595 -44181 -938791
33860 33861608 1196 -73 98559 -39855 -44626 -938752
33864 33865360 488 -634 97900 -39754 -44252 -938714
33868 33869820 1049 -390 97290 -39479 -44693 -938681
33872 33873568 1123 -1098 97631 -40033 -45053 -938643
33876 33877348 195 -317 97460 -39564 -44334 -938555
33880 33881068 708 -537 97973 -39405 -44263 -938467
33884 33884804 1171 -537 97998 -39264 -44766 -938483
33888 33888544 708 -659 97631 -39257 -44676 -938299
33891 33892284 927 -366 97631 -38962 -44914 -938181
33895 33896008 1196 -927 97363 -39275 -45418 -938246
33899 33899768 976 -659 97241 -39271 -45558 -938102
33902 33903500 463 -634 98095 -39179 -45165 -938076
33914 33915248 903 -708 97314 -39082 -44933 -938155
33918 33918984 854 -732 98071 -39229 -45034 -938226
33922 33922728 390 -512 97070 -39044 -44625 -938120
33926 33926448 805 -659 97167 -39072 -44692 -938187
33929 33930188 1074 -830 97070 -39280 -44968 -938113
33933 33933940 805 -1147 98168 -39947 -45004 -938111
33937 33937704 1098 -927 96948 -40277 -45335 -938187
33940 33941448 585 -903 97753 -40578 -45062 -938136
33944 33945176 1074 -1684 97265 -41817 -45445 -938183
33948 33948944 1513 -927 97558 -42115 -46355 -938195
33958 33959012 512 -537 97070 -41863 -46080 -938068
33961 33962740 952 -903 97827 -42100 -46162 -938257
33966 33966480 659 -1074 97973 -42514 -46060 -938251
33970 33970232 634 -561 97875 -42380 -45914 -938190
33973 33973968 415 -683 97534 -42186 -45460 -938188
33977 33977696 732 -903 97338 -42482 -45468 -938095
33980 33981424 634 122 97143 -41561 -45263 -938134
33984 33985156 1025 -1025 98193 -41933 -45579 -938157
33988 33988924 1220 -634 98193 -41759 -46070 -938165
33991 33992668 512 -488 98120 -41620 -45721 -938168
33998 33999048 -24 -463 97900 -41438 -44671 -938339
34001 34002756 268 -390 97851 -41032 -43991 -938324
34006 34006468 585 -561 97851 -40725 -43685 -938249
34010 34010188 952 -756 98364 -40833 -43876 -938271
34013 34013928 781 -830 97485 -40981 -43888 -938263
34017 34017672 878 -732 98071 -40950 -43952 -938270
34021 34021420 146 -878 98217 -41125 -43200 -938223
34024 34025168 781 -1245 97753 -41804 -43222 -938221
34028 34028924 927 -683 97314 -41697 -43415 -938334
34032 34033400 1342 -390 97558 -41263 -44035 -938344
34036 34037132 952 -390 98120 -41010 -44325 -938471
34040 34040860 1000 -268 97387 -40560 -44725 -938360
34043 34044600 463 -854 98022 -40760 -44271 -938425
34048 34048324 952 -927 96606 -41088 -44379 -938344
34051 34052052 732 -659 97900 -40988 -44331 -938360
34055 34055784 -244 -1049 97900 -41392 -43225 -938413
34059 34059536 830 -708 97998 -41419 -43327 -938398
34062 34063268 610 -659 97631 -41425 -43154 -938567
34066 34067008 805 -756 97753 -41256 -43248 -938541
34070 34071488 854 -415 97875 -40810 -43360 -938429
34074 34075220 952 -537 98022 -40682 -43493 -938360
34078 34078952 903 -512 98364 -40461 -43640 -938299
34081 34082680 903 -1147 97875 -41008 -43826 -938291
34085 34086440 976 -976 97436 -41306 -43961 -938264
34089 34090176 537 -561 97656 -41163 -43797 -938219
34093 34093892 317 -1000 98046 -41504 -43232 -938205
34097 34097640 805 -1245 97363 -42153 -43281 -938350
34101 34101392 756 -756 97070 -42213 -43273 -938271
34104 34105124 512 -805 98876 -42416 -42949 -938263
34109 34109608 0 -1000 98388 -42644 -42109 -938243
34112 34113204 1269 -415 98364 -42222 -42830 -938320
34116 34116948 878 -48 96972 -41561 -43138 -938355
34119 34120680 610 -1220 97534 -42146 -42854 -938427
34123 34124432 390 -1684 97192 -43361 -42464 -938309
34127 34128180 -24 -634 99194 -43241 -41591 -938335
34130 34131916 512 -390 99658 -42700 -41488 -938211
34135 34135624 1538 -659 96801 -42531 -42401 -938246
34139 34139372 561 -927 95898 -42861 -42220 -938157
34142 34143108 -292 -1074 97949 -43351 -40753 -938204
34147 34147612 781 -1245 98852 -43915 -40832 -938184
34150 34151368 1513 -73 98242 -43015 -41901 -937986
34154 34155100 1123 -366 97216 -42659 -42286 -937960
34158 34158836 512 -488 97241 -42412 -42027 -937959
34161 34162544 512 -1464 97241 -43303 -41804 -937902
34165 34166288 1196 -1123 98388 -43700 -42451 -937850
34169 34170052 1513 -317 97290 -42998 -43340 -937945
34172 34173784 610 0 96142 -42288 -43165 -937927
34177 34177360 927 -756 96923 -42472 -43291 -937935
34180 34181084 219 -585 99121 -42381 -42698 -937915
34185 34185564 585 -756 98925 -42309 -42679 -938084
34188 34189276 708 -488 96826 -41920 -42735 -938078
34192 34193000 878 -146 95068 -41294 -42791 -938118
34196 34196732 805 -415 97094 -41070 -42806 -938112
34199 34200456 756 -634 98535 -40940 -42891 -937994
34203 34204184 708 -341 99414 -40511 -42877 -937952
34207 34207908 903 -708 96972 -40443 -43100 -938019
34210 34211644 805 -585 97534 -40311 -42988 -937986
34214 34215384 708 -73 96850 -39569 -42962 -938063
34226 34226960 805 -952 97290 -39918 -43108 -938368
34230 34230716 463 -1074 96679 -40380 -42612 -938376
34234 34234452 878 0 97705 -39649 -42760 -938178
34237 34238032 781 -292 99023 -39273 -42738 -938298
34241 34241760 366 -1074 97558 -39642 -42377 -938287
34244 34245484 390 -1660 98193 -40829 -41944 -938108
34248 34249232 1293 -659 96508 -40786 -42624 -938029
34252 34252984 1098 -122 97216 -40137 -42959 -938018
34255 34256736 1025 -146 98608 -39535 -43394 -938102
34259 34260492 48 -1000 98217 -39805 -42638 -938033
34270 34270668 1904 -610 97314 -39607 -44015 -938275
34274 34274420 1147 -244 98291 -39118 -44451 -938274
34277 34278172 708 -610 98925 -39013 -44538 -938168
34281 34281904 24 -830 96728 -39247 -43767 -938304
34285 34285628 708 -1147 97485 -39843 -43621 -938284
34288 34289376 1562 -390 97607 -39601 -44560 -938276
34292 34293120 1318 -292 97582 -39184 -45141 -938298
34296 34296868 -317 -756 97436 -39345 -43861 -938315
34299 34300608 537 -1000 97607 -39865 -43657 -938477
34304 34304348 634 -634 97436 -39910 -43585 -938323
34309 34309744 1171 -292 97582 -39397 -44083 -938389
34313 34313488 756 -366 96899 -39029 -44052 -938369
34316 34317204 170 -1269 96899 -39750 -43416 -938184
34320 34320956 878 -561 97094 -39654 -43537 -938249
34324 34324688 708 -805 97851 -39836 -43492 -938234
34327 34328420 1025 -1245 97802 -40528 -43848 -938257
34331 34332200 463 -634 98193 -40387 -43491 -938237
34335 34335924 -24 -952 98022 -40742 -42597 -938272
34338 34339664 708 48 97656 -39936 -42595 -938154
34342 34343388 1660 -561 98242 -39779 -43693 -938189
34347 34347884 708 -561 97924 -39663 -43581 -937882
34351 34351612 390 -585 97827 -39691 -43114 -937967
34355 34355332 -73 -1049 96923 -40112 -42161 -937979
34358 34359080 976 -683 97778 -40105 -42421 -937929
34362 34362820 2050 -195 97851 -39483 -43939 -937900
34366 34366568 170 -317 96801 -38966 -43218 -937962
34369 34370296 341 -708 97998 -38907 -42754 -938107
34373 34374020 415 -683 97509 -38977 -42432 -938041
34377 34377756 781 -732 97656 -39067 -42331 -938077
34380 34381488 463 -903 98168 -39394 -42134 -937989
34385 34385972 170 -268 97241 -38731 -41446 -937999
34388 34389696 1025 -1123 97509 -39277 -41703 -937997
34393 34393464 830 -927 97460 -39587 -41863 -937940
34397 34397208 1318 -854 97875 -39836 -42278 -937879
34400 34400964 1342 -1123 96997 -40336 -43002 -937963
34404 34404724 659 -488 97900 -40133 -42900 -937884
34407 34408444 878 -1220 97875 -40670 -43085 -937736
34411 34412204 732 -1025 97582 -41109 -43043 -937612
34415 34415952 1269 -732 97607 -41075 -43726 -937642
34419 34420440 610 -97 97070 -40435 -43609 -937512
34423 34424172 927 -317 97900 -40052 -43783 -937433
34426 34427892 390 -341 98071 -39731 -43342 -937441
34430 34431612 1171 -781 97534 -39937 -43890 -937385
34435 34435376 537 -585 97192 -39776 -43637 -937360
34438 34439100 1171 -634 97973 -39723 -44190 -937285
34442 34442860 1196 -1171 96826 -40274 -44812 -937277
34446 34446620 610 -1342 98168 -41188 -44597 -937358
34449 34450356 390 -756 97045 -41091 -44329 -937325
34453 34454076 561 -927 98071 -41455 -44117 -937568
34457 34458552 585 -439 97949 -41272 -43903 -937608
34461 34462272 1049 -1147 96606 -41677 -44426 -937582
34465 34466040 781 -1098 97680 -42226 -44352 -937599
34468 34469792 976 -830 98681 -42286 -44575 -937505
34472 34473532 878 -634 97851 -42274 -44602 -937488
34477 34477268 146 -634 97949 -42203 -43886 -937436
34480 34480992 317 -1220 97607 -42768 -43328 -937373
34484 34484740 512 -292 98217 -42259 -43002 -937412
34488 34488460 317 -366 97192 -41869 -42512 -937370
34491 34492176 1293 -878 97680 -42093 -43085 -937398
34496 34496688 903 -268 97265 -41699 -43139 -937262
34499 34500412 195 -561 97705 -41530 -42536 -937266
34503 34504144 1318 -732 98388 -41508 -43154 -937278
34507 34507884 878 -1123 97558 -41997 -43355 -937355
34510 34511652 463 -292 97412 -41574 -43082 -937371
34514 34515372 415 -659 97973 -41541 -42706 -937315
34519 34519104 366 -683 96948 -41648 -42335 -937309
34522 34522828 756 -976 96948 -42203 -42569 -937368
34526 34526564 512 -366 97314 -41831 -42349 -937270
34529 34530268 1660 -146 98266 -41201 -43375 -937328
34542 34542836 830 -976 96826 -41713 -43564 -937707
34545 34546576 683 -585 97656 -41669 -43388 -937748
34549 34550300 732 -610 97949 -41541 -43378 -937774
34553 34554032 683 -610 98168 -41364 -43363 -937736
34556 34557760 439 -439 98144 -40901 -42890 -937710
34561 34561472 -170 -1293 96655 -41685 -41758 -937851
34565 34565224 561 -1171 97656 -42267 -41578 -937831
34568 34568976 97 -195 97802 -41615 -40934 -937872
34572 34572704 659 -195 98291 -41046 -40839 -937921
34582 34582964 903 146 97827 -39933 -41082 -937999
34586 34586696 634 -854 97460 -40104 -40967 -937951
34589 34590436 1074 -561 97436 -39873 -41484 -937907
34593 34594180 366 -781 97534 -39993 -41017 -937947
34597 34597912 756 -610 98510 -39971 -41042 -938050
34600 34601640 756 -415 97143 -39520 -41265 -937972
34605 34605368 634 -463 96826 -39256 -41106 -937970
34608 34609088 1049 -1000 97460 -39648 -41423 -937974
34612 34612856 805 -830 97265 -40025 -41604 -937984
34616 34616600 781 24 96240 -39110 -41689 -938015
34621 34622184 805 -488 97705 -39090 -41909 -938140
34625 34625908 634 -659 97534 -39141 -41818 -938175
34629 34629648 732 -1147 97851 -39613 -41875 -938316
34632 34633392 683 -1049 97290 -40069 -41856 -938180
34636 34637148 512 -463 98754 -39865 -41654 -938252
34639 34640860 952 -1074 97827 -40249 -41919 -938424
34643 34644612 439 -610 97998 -40106 -41543 -938246
34648 34648340 878 -366 97607 -39829 -41790 -938318
34651 34652060 1049 -732 98339 -39904 -42166 -938438
34655 34655804 -24 -1025 97924 -40414 -41355 -938350
34659 34660292 1342 -561 97729 -40366 -42019 -938397
34663 34664032 805 97 98364 -39439 -42279 -938420
34667 34667756 219 -976 97338 -39782 -41720 -938455
34670 34671488 585 -903 97314 -39973 -41427 -938355
34674 34675220 97 -585 97998 -39809 -40682 -938299
34678 34678944 1049 -634 97900 -39806 -41102 -938293
34681 34682704 781 -122 97265 -39220 -41189 -938352
34685 34686448 1098 -854 96630 -39575 -41740 -938417
34690 34690204 634 -1000 97460 -39951 -41626 -938516
34693 34693956 512 -415 98120 -39494 -41297 -938453
34698 34698424 1220 -439 97485 -39334 -41930 -938531
34701 34702164 903 -390 98266 -38950 -42164 -938553
34705 34705888 512 -1000 98046 -39332 -41925 -938442
34709 34709644 195 -952 97705 -39591 -41330 -938358
34712 34713384 1025 -1586 97582 -40662 -41612 -938417
34716 34717156 732 -122 97021 -40016 -41650 -938429
34720 34720892 634 -48 96874 -39301 -41613 -938377
34723 34724624 1367 -708 98364 -39435 -42398 -938467
34727 34728376 122 -585 98168 -39380 -41680 -938461
34732 34732116 1147 -1000 97143 -39783 -42285 -938464
34736 34736644 415 -1147 97119 -40323 -41829 -938426
34740 34740384 732 -585 96997 -40281 -41835 -938333
34743 34744116 561 -585 96752 -40259 -41641 -938416
34747 34747844 854 -732 97753 -40255 -41734 -938364
34751 34751584 976 -1342 97045 -41085 -42030 -938358
34754 34755344 512 -1220 97558 -41739 -41679 -938240
34758 34759088 756 -878 97607 -41963 -41739 -938179
34762 34762828 537 -390 97558 -41605 -41419 -938192
34765 34766544 610 -585 97167 -41435 -41413 -938061
34770 34771024 439 -683 96923 -41355 -41099 -938035
34774 34774760 610 -805 97582 -41459 -40823 -937872
34778 34778496 659 -805 98022 -41586 -40822 -937940
34782 34782240 537 -317 97290 -41119 -40643 -937975
34785 34785964 659 -366 97265 -40693 -40626 -937912
34789 34789680 146 -1147 97509 -41237 -40026 -937897
34792 34793424 1269 -512 97582 -41081 -40744 -937872
34796 34797172 1098 -415 97949 -40680 -41317 -937889
34800 34800916 610 -878 96948 -40878 -41257 -937841
34803 34804644 537 -610 98095 -40828 -41174 -938029
34808 34809120 952 -1293 97705 -41541 -41582 -938216
34811 34812864 878 -659 97094 -41555 -41866 -938232
34816 34816600 170 -561 97509 -41481 -41193 -938283
34820 34820328 48 -610 97143 -41269 -40387 -938282
34823 34824056 1098 -976 97607 -41680 -40774 -938298
34827 34827812 512 -488 99096 -41366 -40520 -938338
34831 34831520 659 -463 97973 -41028 -40558 -938309
34834 34835244 488 -463 97363 -40694 -40370 -938282
34838 34838952 854 -781 97460 -40740 -40577 -938363
34842 34842700 341 -732 98193 -40839 -40061 -938275
34854 34855108 537 -1196 97485 -41178 -39445 -938104
34857 34858852 1000 -1171 97582 -41806 -39825 -938140
34862 34862628 634 48 97338 -40937 -39633 -938083
34866 34866348 1464 -830 97827 -41050 -40647 -938132
34869 34870088 976 -732 97924 -41080 -40905 -938063
34873 34873824 -122 -732 97314 -41144 -39931 -938093
34877 34877572 512 -903 97802 -41344 -39818 -938028
34880 34881300 1000 -708 98291 -41408 -40220 -938099
34884 34885056 1123 -170 97314 -40804 -40725 -938052
34888 34888804 585 -708 97753 -40823 -40607 -938137
34898 34899172 1489 -683 97851 -40778 -41137 -937843
34902 34902908 1684 -488 96997 -40502 -42193 -937726
34906 34906644 268 -976 97802 -40913 -41669 -937678
34910 34910376 756 -781 97851 -40947 -41641 -937695
34913 34914108 585 -488 97412 -40828 -41516 -937742
34917 34917828 781 -537 96972 -40606 -41619 -937773
34921 34921568 341 -732 97802 -40653 -41228 -937785
34924 34925296 1049 -415 97729 -40219 -41515 -937698
34928 34929032 195 -1123 97680 -40652 -40906 -937628
34934 34935264 463 -683 97314 -40569 -40635 -937335
34938 34939000 781 -366 96972 -40285 -40697 -937334
34941 34942724 610 -610 97900 -40157 -40643 -937293
34946 34946460 1000 -1147 97875 -40666 -40926 -937250
34950 34950224 878 -415 98510 -40389 -41189 -937231
34953 34953960 1464 -830 97338 -40619 -42264 -937271
34957 34957708 317 -561 97167 -40442 -41798 -937284
34961 34961440 952 -756 97216 -40660 -42156 -937287
34964 34965172 683 -488 97656 -40408 -42128 -937370
34968 34968900 390 -708 97729 -40314 -41663 -937456
34972 34973364 805 97 97363 -39286 -41731 -937478
34976 34977088 585 -708 97558 -39354 -41550 -937527
34979 34980804 341 -976 98071 -39664 -41114 -937622
34983 34984532 1025 -1049 97167 -40124 -41442 -937635
34988 34988296 1660 -805 97998 -40281 -42577 -937560
34991 34992048 781 -634 96777 -40395 -42556 -937704
34995 34995784 610 -170 97412 -39795 -42435 -937892
34999 34999516 439 -390 97045 -39388 -42147 -937973
35002 35003224 683 -756 97729 -39566 -42124 -938007
35006 35006960 341 -146 97119 -38921 -41654 -938047
35010 35011424 634 -634 97509 -38728 -41544 -938045
35014 35015164 1245 -537 97851 -38596 -42113 -938062
35018 35018896 878 -927 97656 -38899 -42312 -938038
35021 35022636 781 -292 98291 -38565 -42431 -938060
35025 35026368 952 -1098 97827 -39148 -42747 -938072
35030 35030124 585 -610 97778 -39122 -42657 -938028
35033 35033856 781 -830 97363 -39359 -42820 -938068
35037 35037600 659 -1123 97412 -39934 -42659 -938094
35041 35041352 512 -1074 97558 -40370 -42539 -938175
35044 35045088 1098 -610 97875 -40367 -42819 -938131
35049 35049592 439 -708 97192 -40473 -42566 -938232
35052 35053320 659 -732 97949 -40521 -42546 -938365
35056 35057052 756 -537 97753 -40228 -42587 -938459
35060 35060776 1049 -756 98388 -40372 -42968 -938504
35063 35064540 659 -463 96899 -40000 -42943 -938520
35067 35068256 659 -390 97387 -39611 -42793 -938546
35070 35071972 1220 -488 97802 -39403 -43320 -938544
35075 35075716 317 -781 98315 -39472 -42806 -938548
35079 35079448 708 -805 98193 -39628 -42867 -938528
35082 35083184 146 -708 97827 -39665 -42176 -938471
35087 35087672 341 -659 97363 -39660 -41675 -938421
35090 35091384 781 -73 97705 -38923 -41891 -938370
35094 35095116 952 -488 97363 -38654 -42150 -938374
35098 35098840 903 -732 98803 -38735 -42364 -938409
35101 35102580 732 -659 98535 -38697 -42573 -938340
35105 35106320 268 -512 97509 -38490 -42006 -938352
35109 35110032 561 -292 97827 -38095 -41798 -938383
35112 35113752 463 -927 98388 -38496 -41376 -938281
35117 35117480 781 -854 97558 -38816 -41538 -938239
35121 35121972 830 -732 96777 -38919 -41727 -938243
35125 35125708 805 -659 97582 -38901 -41843 -938337
35129 35129460 219 -585 97363 -38800 -41194 -938368
35132 35133192 1025 -341 97973 -38304 -41642 -938305
35136 35136924 830 -512 97241 -38165 -41810 -938345
35140 35140656 756 -585 97045 -38206 -41922 -938389
35143 35144388 -219 -1513 97582 -39279 -40952 -938283
35147 35148136 708 -854 97558 -39507 -41024 -938199
35150 35151880 927 -610 97509 -39380 -41227 -938193
35154 35155612 1049 -830 97582 -39665 -41613 -938313
35167 35167388 805 -48 96899 -39194 -41292 -938459
35170 35171136 927 -976 97314 -39476 -41547 -938298
35174 35174876 317 -488 97216 -39361 -40974 -938342
35178 35178584 1000 -463 96997 -39163 -41423 -938300
35181 35182336 1000 -781 96777 -39263 -41661 -938273
35185 35186092 976 -952 97656 -39600 -41938 -938267
35189 35189836 927 -463 98242 -39268 -42110 -938353
35192 35193564 830 -585 97436 -39101 -42191 -938210
35196 35197296 781 0 97314 -38292 -42263 -938145
35200 35200868 1342 -341 97460 -38018 -43065 -938104
35211 35211340 1049 -708 97460 -38241 -43410 -937916
35214 35215092 341 -585 97265 -38119 -43095 -938030
35218 35218808 146 -756 97778 -38284 -42383 -938015
35222 35222540 756 -585 97314 -38244 -42436 -938119
35225 35226280 732 -854 97827 -38529 -42428 -938031
35229 35230020 854 -903 98217 -38826 -42617 -938103
35232 35233756 585 -122 97607 -38193 -42359 -938193
35236 35237492 1171 -903 97729 -38494 -42899 -938283
35240 35241248 585 -952 97729 -38740 -42896 -938360
35244 35244968 1464 -976 96972 -39185 -43847 -938346
35251 35251384 1245 -1074 97851 -39713 -44483 -938261
35254 35255144 878 -561 98193 -39635 -44578 -938137
35258 35258880 1049 -73 98632 -38905 -44902 -938131
35262 35262628 1000 -390 97607 -38518 -45104 -938111
35265 35266368 830 -805 96411 -38772 -45123 -937993
35269 35270112 1000 -878 97827 -39048 -45367 -937941
35273 35273876 781 -634 98095 -38964 -45494 -937967
35276 35277616 878 -317 96264 -38485 -45595 -937794
35280 35281340 1098 -244 97314 -38089 -45968 -937857
35284 35285092 1025 -976 98217 -38383 -46120 -937873
35289 35289592 659 -732 97241 -38497 -46119 -937993
35293 35293320 1196 -1025 97534 -38927 -46612 -938019
35296 35297092 1416 -830 97558 -38980 -47325 -938146
35300 35300832 1269 -659 97705 -38952 -47770 -938149
35304 35304580 732 -1611 97778 -40061 -47713 -938134
35307 35308336 1074 -585 96386 -39861 -47851 -938150
35311 35312076 805 -537 96777 -39736 -47782 -938158
35315 35315812 512 -1293 97412 -40535 -47421 -938225
35318 35319560 268 -561 97265 -40392 -46736 -938339
35323 35324028 878 -317 97021 -39918 -46834 -938434
35326 35327764 634 -1196 98437 -40445 -46607 -938371
35331 35331520 1000 -805 98657 -40662 -46775 -938319
35335 35335276 878 -732 97582 -40673 -46850 -938377
35338 35339020 1049 -952 98242 -41031 -47204 -938369
35342 35342780 1171 -537 97387 -40954 -47680 -938395
35346 35346520 463 -732 98291 -41012 -47169 -938403
35349 35350236 927 -146 97387 -40430 -47437 -938444
35353 35353976 1098 -463 98339 -40131 -47855 -938373
35357 35357720 1171 -390 97875 -39826 -48221 -938358
35361 35362208 1049 -341 98046 -39531 -48370 -938295
35365 35365940 1025 -292 97436 -38969 -48605 -938216
35368 35369688 1367 -390 96630 -38735 -49135 -938290
35373 35373424 1367 -708 97802 -38719 -49818 -938224
35377 35377172 756 -708 98120 -38803 -49665 -938209
35380 35380904 195 -781 97460 -38988 -48885 -938323
35384 35384644 805 -683 97216 -39077 -48794 -938427
35387 35388376 1098 -927 97729 -39432 -49085 -938462
35391 35392132 659 -561 97631 -39225 -48823 -938472
35395 35395860 561 -488 97192 -39138 -48415 -938512
35399 35400320 781 -219 98120 -38493 -48360 -938555
35403 35404060 390 -268 97241 -38071 -47850 -938655
35406 35407772 610 -73 97802 -37426 -47603 -938695
35410 35411508 878 -708 97680 -37561 -47668 -938838
35415 35415244 1049 -1269 97778 -38235 -47976 -938818
35418 35419004 756 -537 97485 -38060 -47824 -938798
35422 35422724 732 -683 97949 -38112 -47653 -938700
35426 35426448 415 -1196 96801 -38721 -47133 -938731
35429 35430184 1220 -1000 98803 -39222 -47577 -938711
35433 35433952 146 -585 98535 -39092 -46787 -938709
35437 35438440 341 -830 97582 -39249 -46439 -938542
35441 35442164 1171 -610 97412 -39223 -46813 -938486
35445 35445920 634 -390 97363 -38894 -46674 -938526
35448 35449648 805 -585 97167 -38724 -46602 -938402
35452 35453384 292 -659 97241 -38771 -46024 -938355
35457 35457124 903 -1269 97582 -39500 -46192 -938312
35460 35460884 317 -488 97705 -39379 -45569 -938273
35464 35464608 1416 -781 97802 -39561 -46371 -938217
35468 35468356 463 -927 98510 -39885 -45993 -938165
35479 35479956 1123 -1293 96972 -40634 -46419 -938495
35483 35483728 585 -244 97143 -40141 -46232 -938352
35486 35487456 1000 -732 97582 -40144 -46495 -938374
35490 35491200 830 -805 98632 -40264 -46593 -938465
35494 35494944 952 -561 98144 -40065 -46787 -938459
35497 35498676 439 -708 96923 -40094 -46282 -938410
35502 35502400 708 -146 97412 -39478 -46113 -938377
35505 35506124 732 -732 97582 -39599 -46007 -938334
35509 35509848 1147 -341 97729 -39256 -46355 -938412
35513 35513588 463 -683 97998 -39275 -46070 -938497
35523 35524136 415 -561 97241 -39168 -45491 -938273
35527 35527860 -73 -1074 97485 -39603 -44514 -938176
35530 35531612 1000 -512 98266 -39481 -44965 -938229
35534 35535360 830 -1147 97582 -40070 -45095 -938154
35538 35539120 463 -952 96362 -40343 -44790 -938066
35542 35542844 1025 -1196 97143 -41150 -45037 -938101
35546 35546608 878 -537 97045 -41010 -45144 -938105
35550 35550344 683 -878 97656 -41096 -44999 -938021
35553 35554076 1196 -1269 97607 -41819 -45552 -938074
35557 35557844 1684 -1074 97558 -42190 -46597 -938109
35562 35563272 219 -317 98315 -41822 -45997 -937992
35566 35567004 659 -708 97851 -41734 -45867 -938137
35570 35570740 1074 -488 97705 -41553 -46287 -938177
35573 35574480 561 -903 96997 -41819 -45912 -938199
35577 35578208 1098 -1000 97827 -42218 -46303 -938161
35581 35581984 219 -732 97607 -42282 -45618 -938269
35585 35585724 1171 -732 97167 -42127 -46148 -938072
35589 35589468 219 -952 97656 -42438 -45569 -938171
35592 35593196 1025 -317 98071 -41960 -45860 -938160
35596 35596952 830 -146 97900 -41335 -45916 -938146
35601 35601448 683 -512 96655 -41074 -45844 -938138
35604 35605180 805 -878 97290 -41276 -45859 -938167
35608 35608928 1269 -952 97973 -41511 -46320 -938193
35611 35612668 830 -1318 97412 -42191 -46366 -938104
35615 35616432 1391 -244 97167 -41576 -47032 -938035
35619 35620172 463 -463 97802 -41396 -46564 -938075
35622 35623876 463 -1049 97265 -41836 -46198 -938060
35627 35627620 854 -732 97167 -41879 -46103 -937950
35631 35631352 341 -1220 97900 -42493 -45644 -937940
35635 35635832 439 -341 98120 -41968 -45126 -937861
35639 35639540 708 -854 98022 -42114 -45070 -937919
35642 35643268 463 -927 96923 -42411 -44628 -937844
35646 35646996 1098 -268 98071 -41818 -45028 -937874
35650 35650740 1025 -927 97900 -42126 -45320 -937900
35653 35654496 903 -683 97827 -41995 -45532 -937898
35657 35658236 830 -634 98071 -41920 -45542 -937961
35661 35661972 1074 -585 98120 -41761 -45855 -937873
35664 35665716 878 -952 97143 -42181 -45975 -938042
35668 35669464 341 -732 97241 -42117 -45328 -938040
35673 35673924 219 -537 97875 -42096 -44805 -938086
35677 35677648 561 -244 97216 -41457 -44531 -937980
35681 35681368 708 -1000 97729 -41936 -44458 -937891
35684 35685120 805 -341 98095 -41497 -44498 -937883
35688 35688876 683 -1000 98388 -41891 -44477 -937905
35692 35692624 708 -610 97753 -41904 -44508 -937885
35695 35696356 512 -952 97143 -42123 -44127 -937956
35699 35700084 317 -292 97314 -41635 -43606 -937859
35702 35703800 708 -488 97875 -41428 -43581 -937802
35706 35707528 317 -170 97534 -40825 -43023 -937825
35710 35711996 634 -732 98120 -40834 -42823 -937830
35715 35715732 683 -488 97875 -40631 -42899 -937797
35719 35719456 317 -561 97949 -40359 -42377 -937709
35722 35723168 878 -268 97802 -39939 -42434 -937597
35726 35726892 488 -1025 97680 -40355 -42219 -937589
35730 35730632 341 -1000 97436 -40717 -41674 -937638
35733 35734364 659 -1025 97363 -41038 -41707 -937514
35737 35738120 292 -756 97534 -41165 -41289 -937608
35741 35741844 756 -659 98583 -41032 -41429 -937657
35744 35745576 732 -488 98022 -40890 -41427 -937729
35749 35750044 1220 -781 97192 -40994 -42087 -937757
35752 35753804 366 -756 97680 -40950 -41683 -937861
35757 35757516 219 -1000 97973 -41199 -41035 -937833
35761 35761268 1000 -634 97949 -41041 -41377 -937886
35764 35765020 1611 -512 97851 -40923 -42371 -937982
35768 35768768 830 -1000 97094 -41295 -42522 -937953
35772 35772528 1049 -415 97656 -40956 -42819 -937787
35775 35776280 830 -219 97412 -40402 -42987 -937754
35779 35780028 634 -732 97778 -40489 -42850 -937771
35791 35792620 781 -659 97070 -40440 -42612 -937820
35795 35796364 292 -1000 97485 -40713 -42033 -937794
35800 35800108 512 -1391 97900 -41465 -41780 -937833
35803 35803844 878 -97 98095 -40708 -41954 -937667
35807 35807580 -73 -146 96826 -40036 -40961 -937624
35810 35811304 781 -610 96972 -40020 -41147 -937604
35814 35815048 903 -659 97582 -39988 -41319 -937767
35818 35818788 634 -585 97705 -40001 -41265 -937697
35821 35822512 781 -830 98071 -40099 -41359 -937829
35825 35826256 708 -634 98388 -40073 -41238 -937717
35835 35836912 268 -219 97705 -39485 -40640 -937484
35840 35840640 683 -512 97387 -39105 -40535 -937542
35844 35844364 561 -439 97314 -38868 -40355 -937568
35847 35848080 610 -488 98071 -38685 -40340 -937572
35851 35851808 -390 -659 97143 -38707 -39059 -937516
35855 35855544 927 -463 97045 -38490 -39347 -937556
35858 35859272 927 -561 97485 -38369 -39657 -937486
35862 35863008 1147 -732 97485 -38364 -40133 -937503
35866 35866752 1196 -537 96557 -38180 -40903 -937447
35869 35870496 561 -610 97875 -38197 -40659 -937366
35875 35876104 830 -512 96606 -37893 -40869 -937310
35878 35879828 805 -512 98388 -37744 -40919 -937296
35883 35883560 976 -1049 97631 -38244 -41158 -937194
35887 35887312 1147 -756 97241 -38295 -41750 -937138
35890 35891048 976 -341 97412 -37872 -42017 -937178
35894 35894784 805 -561 98608 -37749 -42037 -937177
35898 35898528 927 -878 97802 -38060 -42369 -937267
35901 35902268 512 -708 97802 -38087 -42052 -937350
35905 35905992 683 -512 97265 -38019 -42039 -937363
35909 35909720 439 -317 97314 -37691 -41801 -937338
35913 35914196 512 -1074 97265 -38221 -41594 -937410
35917 35917936 1098 -805 97363 -38392 -42020 -937472
35920 35921700 659 -830 97705 -38610 -41804 -937586
35924 35925436 830 -561 97998 -38441 -41939 -937499
35929 35929176 1147 -415 98828 -38144 -42391 -937589
35932 35932928 1342 -585 97656 -38087 -43143 -937562
35936 35936676 292 -1220 96826 -38753 -42583 -937497
35940 35940420 708 -659 97119 -38751 -42500 -937431
35943 35944164 317 -1416 96874 -39580 -42026 -937545
35947 35947904 805 146 97631 -38661 -42203 -937503
35951 35952384 708 -732 97241 -38727 -42176 -937397
35955 35956116 1342 -1025 97973 -39206 -42881 -937391
35959 35959888 830 -561 97705 -39041 -42966 -937371
35962 35963628 610 -976 96704 -39399 -42795 -937504
35966 35967360 634 -585 97778 -39346 -42684 -937550
35971 35971096 585 -512 97363 -39096 -42498 -937453
35974 35974820 659 -732 97827 -39160 -42403 -937591
35978 35978552 537 -659 97119 -39133 -42073 -937466
35981 35982276 561 -537 97656 -39048 -41945 -937391
35986 35986744 1049 -292 98120 -38621 -42326 -937493
35989 35990488 537 -512 97387 -38434 -42063 -937574
35993 35994200 854 -512 98266 -38144 -42207 -937670
35997 35997932 927 -854 97656 -38389 -42362 -937705
36000 36001676 854 -854 98144 -38469 -42508 -937782
36004 36005412 976 -878 97802 -38778 -42820 -937866
36008 36009156 268 -488 97412 -38727 -42149 -937766
36012 36012860 415 -878 97021 -39104 -41851 -937709
36016 36016592 585 -244 97387 -38610 -41717 -937749
36020 36020324 659 -634 97753 -38685 -41540 -937702
36024 36024812 976 -488 97680 -38437 -41939 -937681
36028 36028536 634 -610 98193 -38421 -41797 -937758
36031 36032272 927 -292 98022 -38127 -42064 -937774
36035 36036008 1293 -830 97753 -38445 -42664 -937791
36039 36039760 390 -561 96923 -38350 -42322 -937831
36042 36043488 1025 -805 97753 -38563 -42738 -937701
36046 36047240 927 -1049 97290 -39087 -42950 -937708
36050 36050992 878 -903 96777 -39263 -43150 -937698
36054 36054740 219 -683 97802 -39249 -42515 -937856
36058 36058468 854 -927 97265 -39557 -42569 -937868
36062 36062956 268 -732 97436 -39592 -42136 -937829
36066 36066676 1269 -585 97656 -39614 -42676 -937887
36070 36070420 610 -903 97753 -39863 -42507 -937822
36073 36074152 1000 -830 97460 -40095 -42906 -937844
36077 36077904 1147 -1025 98144 -40437 -43509 -937911
36080 36081660 1342 -439 97534 -40091 -44177 -938079
36084 36085404 927 -732 97705 -40131 -44436 -938108
36088 36089140 561 -1123 96923 -40687 -44162 -938148
36091 36092880 292 -634 97387 -40675 -43619 -938127
36096 36096612 1098 -952 98315 -40897 -44005 -938148
36108 36109056 488 -1123 97460 -41490 -43181 -937940
36112 36112800 683 -732 99121 -41449 -43180 -937998
36116 36116524 1123 -244 98022 -40838 -43657 -937887
36119 36120280 537 -537 97241 -40745 -43525 -937940
36123 36123992 341 -683 96093 -40736 -42960 -937888
36126 36127708 24 -366 97753 -40356 -42161 -937850
36130 36131424 1025 -561 98681 -40213 -42587 -937659
36134 36135164 1220 -903 97290 -40437 -43191 -937740
36137 36138912 634 -24 98095 -39657 -43048 -937707
36142 36142640 1123 -805 97119 -39875 -43572 -937626
36153 36153424 634 -732 97998 -39964 -43400 -937590
36156 36157164 1098 -659 97778 -40088 -43731 -937607
36160 36160916 659 -878 97631 -40345 -43738 -937624
36164 36164660 1123 -756 97412 -40365 -44162 -937695
36167 36168412 244 -268 97875 -39765 -43488 -937748
36171 36172128 610 -976 96923 -40129 -43354 -937724
36174 36175856 1049 -781 96997 -40241 -43781 -937796
36178 36179620 292 -537 97680 -40111 -43183 -937664
36183 36183340 683 -903 98510 -40396 -43191 -937616
36189 36189552 683 -1147 97436 -40983 -43231 -937394
36193 36193296 1391 -976 97729 -41331 -44026 -937324
36196 36197048 878 -1196 96874 -41926 -44144 -937218
36200 36200804 854 -1025 97631 -42286 -44273 -937230
36204 36204560 903 -659 98242 -42192 -44370 -937119
36207 36208292 903 -878 97827 -42306 -44506 -937141
36211 36212032 756 -952 98291 -42539 -44454 -937039
36214 36215776 537 -97 97753 -41686 -44204 -937029
36218 36219492 390 -1074 97558 -42186 -43779 -937057
36222 36223236 878 -488 97827 -42029 -43988 -937043
36227 36227704 561 -415 98022 -41524 -43728 -936895
36231 36231424 927 -610 97778 -41476 -44044 -936967
36234 36235156 1000 -903 98315 -41742 -44379 -936788
36238 36238908 1123 -195 97338 -41209 -44868 -936756
36242 36242660 585 -708 97851 -41071 -44648 -936718
36245 36246384 73 -878 97167 -41340 -43711 -936764
36249 36250116 390 -1123 97998 -41791 -43352 -936722
36253 36253860 341 -537 97656 -41505 -42873 -936844
36256 36257568 463 -317 97656 -41072 -42489 -936934
36260 36261292 561 -805 96948 -41256 -42277 -936946
36264 36265768 683 -561 97436 -40943 -42288 -936974
36269 36269496 122 -927 97314 -41302 -41502 -937069
36273 36273232 1074 -683 98461 -41393 -42039 -937040
36276 36276980 830 -268 97363 -40762 -42266 -937080
36280 36280704 415 170 96972 -39700 -41889 -936951
36284 36284432 1074 -683 97778 -39766 -42190 -936926
36287 36288180 683 -1147 97094 -40283 -42040 -937034
36291 36291928 976 -463 97607 -40031 -42471 -936978
36294 36295648 634 -781 97875 -40029 -42307 -936954
36298 36299388 341 -341 97094 -39656 -41889 -936909
36302 36303848 219 -463 96972 -39274 -41246 -936937
36306 36307568 537 -805 97363 -39467 -41099 -936958
36311 36311296 1025 -683 97290 -39456 -41432 -936915
36314 36315036 463 -585 97656 -39438 -41280 -936932
36318 36318768 146 -878 97485 -39582 -40567 -937015
36322 36322500 1220 -1123 97729 -40134 -41197 -937000
36325 36326268 659 -488 97509 -39953 -41118 -937047
36329 36329992 1098 -195 96508 -39346 -41498 -937137
36333 36333740 805 -341 97534 -38974 -41664 -937099
36337 36338220 -146 -1220 97827 -39662 -40735 -937020
36341 36341980 732 -732 97485 -39780 -40701 -937179
36344 36345692 805 -634 97900 -39733 -40783 -937073
36348 36349436 97 -854 98095 -39955 -40158 -937168
36353 36353168 732 -1025 97143 -40290 -40229 -937180
36356 36356916 830 -537 97265 -40237 -40337 -937166
36360 36360640 268 -1147 98046 -40719 -39845 -937228
36364 36364384 854 -415 98608 -40379 -40037 -937236
36367 36368124 1538 -219 96728 -39802 -41160 -937222
36371 36371872 708 -805 97119 -39997 -41128 -937294
36375 36376360 97 -878 97338 -40286 -40386 -937267
36379 36380092 732 -781 98510 -40331 -40462 -937339
36383 36383828 585 -732 98339 -40414 -40358 -937310
36386 36387564 1196 -732 97265 -40451 -41015 -937265
36390 36391308 -24 -48 97607 -39677 -40212 -937218
36395 36395040 903 -219 97167 -39209 -40300 -937296
36398 36398772 1196 -878 97265 -39377 -40910 -937251
36402 36402524 708 -219 97070 -38894 -40924 -937199
36405 36406252 463 -878 97778 -39133 -40618 -937225
36409 36409988 659 -732 98217 -39079 -40569 -937260
36421 36421752 708 -976 97875 -38916 -40540 -937036
36424 36425492 512 -952 97778 -39337 -40360 -936985
36428 36429232 659 -610 97192 -39302 -40277 -937071
36432 36432968 976 -1489 97119 -40331 -40606 -936987
36435 36436720 756 -317 97119 -39758 -40883 -936824
36440 36440440 561 -927 97851 -40081 -40687 -936933
36443 36444164 756 -1000 97241 -40544 -40775 -936954
36447 36447916 952 -659 97534 -40454 -41073 -936830
36451 36451660 683 -1196 97973 -41103 -40997 -936856
36454 36455400 659 -1391 96948 -41953 -41051 -936901
36465 36466284 1318 -1318 97973 -42689 -42251 -937029
36469 36470048 292 -708 96801 -42764 -41754 -937037
36472 36473772 903 -463 97290 -42527 -41917 -937060
36476 36477496 463 -805 97827 -42463 -41623 -937027
36481 36481228 537 -561 97631 -42296 -41404 -936970
36484 36484944 878 -146 97631 -41658 -41686 -936840
36488 36488680 488 -463 97607 -41374 -41390 -936788
36492 36492396 1098 -1196 97387 -42017 -41918 -936810
36495 36496172 512 -927 98632 -42237 -41808 -936899
36499 36499900 732 -1245 96826 -43055 -41888 -936948
36505 36506312 756 -1025 97900 -43394 -41812 -937037
36509 36510060 512 -1147 97729 -43841 -41604 -936903
36513 36513804 585 -537 98754 -43592 -41390 -937006
36516 36517520 463 -805 97534 -43727 -41144 -936980
36520 36521252 927 -317 97485 -43315 -41442 -937039
36524 36524980 1074 -585 97753 -43172 -41813 -937104
36528 36528732 830 -390 97900 -42862 -41824 -937188
36532 36532456 1000 -732 98461 -42916 -42175 -937301
36535 36536200 195 -756 97314 -43111 -41694 -937152
36540 36540684 854 -585 97290 -42843 -41921 -937046
36543 36544412 1245 -268 97607 -42212 -42569 -937069
36547 36548152 1025 -732 97338 -42260 -42926 -937164
36551 36551904 585 -683 97387 -42224 -42789 -937204
36554 36555632 366 -73 96874 -41485 -42223 -936995
36558 36559340 683 -366 97582 -41103 -42092 -936915
36562 36563056 1074 -1098 97363 -41606 -42529 -936873
36566 36566836 366 -317 97460 -41125 -41998 -936916
36570 36570544 610 -1147 97534 -41624 -41938 -936864
36574 36574296 1196 -830 97558 -41744 -42483 -936730
36578 36578800 732 -1342 98364 -42480 -42487 -936740
36582 36582552 1147 -317 97924 -41957 -43030 -936730
36585 36586296 -390 -317 98071 -41543 -41713 -936752
36589 36590028 -122 -341 97973 -41117 -40728 -936870
36593 36593764 830 -634 97265 -41078 -40910 -936887
36596 36597508 268 -317 97070 -40572 -40439 -937019
36600 36601232 1074 -756 97192 -40680 -40880 -937095
36604 36604984 585 -610 97534 -40611 -40800 -937002
36608 36608720 317 -1049 98339 -40985 -40325 -936916
36612 36612464 952 -708 96557 -40997 -40613 -936864
36616 36616944 732 24 97460 -40262 -40633 -936874
36620 36620656 1318 -488 96752 -40026 -41454 -936818
36624 36624396 1269 -341 97363 -39655 -42026 -936766
36627 36628136 952 -1074 97412 -40072 -42366 -936697
36631 36631900 805 -634 97045 -40007 -42398 -936796
36634 36635632 1049 -610 98193 -39902 -42664 -936749
36638 36639388 1074 -1123 97485 -40448 -43116 -936698
36642 36643156 1000 -659 96874 -40459 -43523 -936601
36645 36646904 878 -366 97949 -40056 -43744 -936558
36649 36650632 1074 -634 97436 -40010 -44104 -936319
36655 36655128 952 -585 97753 -39962 -44321 -936305
36658 36658868 1049 -878 98071 -40244 -44698 -936346
36662 36662628 1147 -1000 98388 -40619 -45199 -936536
36666 36666400 781 -463 97949 -40318 -45277 -936471
36669 36670128 708 -610 97607 -40294 -45173 -936475
36673 36673860 878 -878 97875 -40545 -45322 -936551
36676 36677604 903 -854 98046 -40791 -45512 -936696
36680 36681348 1147 -659 97338 -40775 -45983 -936585
36684 36685104 756 -830 96704 -41007 -45956 -936514
36688 36689596 244 -585 97949 -40938 -45294 -936476
36692 36693316 73 -268 97705 -40542 -44516 -936437
36696 36697024 1342 -659 98315 -40496 -45236 -936431
36700 36700784 488 -683 97680 -40452 -44935 -936417
36704 36704512 1025 -561 97338 -40385 -45262 -936374
36707 36708248 1049 -463 98046 -40287 -45650 -936275
36711 36711988 1098 -585 96704 -40308 -45974 -936340
36715 36715736 976 -683 98754 -40322 -46202 -936343
36718 36719476 659 -585 97656 -40156 -45980 -936256
36722 36723208 463 -756 98193 -40146 -45594 -936231
36733 36734780 756 -585 97436 -39567 -45143 -935987
36738 36738516 1635 -610 97656 -39492 -46183 -935945
36742 36742276 1049 -268 97656 -38991 -46608 -935934
36745 36746012 1220 -878 98120 -39286 -46935 -936018
36749 36749768 1025 -683 98022 -39362 -47263 -935925
36753 36753520 878 -1000 97460 -39698 -47351 -935960
36756 36757280 659 -708 96777 -39761 -47078 -935762
36760 36761012 708 -781 97802 -39913 -46966 -935871
36764 36764748 1342 -415 98461 -39611 -47577 -935833
36767 36768496 903 -805 97631 -39932 -47866 -936032
36779 36779456 512 -854 97143 -40291 -47137 -935792
36783 36783180 1196 -48 97778 -39614 -47556 -935804
36786 36786932 1269 -463 98071 -39382 -48173 -935729
36790 36790672 708 -1000 97656 -39702 -48140 -935700
36794 36794416 683 -1342 96850 -40555 -48009 -935630
36797 36798168 463 -659 96826 -40525 -47532 -935646
36801 36801892 292 -439 96997 -40247 -47027 -935622
36804 36805604 1171 -24 97924 -39408 -47445 -935620
36808 36809348 634 -1464 97143 -40360 -47144 -935570
36812 36813088 903 -439 96118 -40117 -47337 -935632
36817 36818504 585 -903 97875 -40301 -47212 -935730
36822 36822232 805 -244 97558 -39896 -47167 -935673
36825 36825964 659 -439 97705 -39560 -46878 -935653
36829 36829688 781 -537 96313 -39386 -46848 -935647
36833 36833428 756 -634 97387 -39359 -46833 -935654
36836 36837164 878 -854 97998 -39595 -47051 -935671
36840 36840912 927 -976 97851 -39929 -47192 -935619
36844 36844656 561 -878 96630 -40263 -46915 -935631
36847 36848392 537 -952 96948 -40631 -46726 -935678
36852 36852872 341 -683 98144 -40557 -46191 -935694
36855 36856600 1245 -854 97338 -40746 -46763 -935741
36859 36860364 878 -1000 97485 -41072 -46893 -935790
36864 36864120 805 -732 96557 -41079 -46870 -935868
36867 36867864 48 -366 97631 -40484 -46093 -935811
36871 36871588 903 -415 98046 -40204 -46200 -935768
36875 36875324 683 -1391 97851 -41093 -46073 -935785
36878 36879072 512 -805 97680 -41402 -45819 -935777
36882 36882804 708 -1025 97656 -41737 -45627 -935716
36886 36886548 805 -415 97582 -41412 -45607 -935682
36890 36891036 585 -488 98193 -41262 -45367 -935656
36894 36894756 1000 -610 97241 -41120 -45694 -935677
36897 36898508 -73 -1440 96826 -42063 -44598 -935633
36901 36902248 341 -170 97607 -41404 -44014 -935604
36904 36905960 683 -537 97412 -41238 -43933 -935602
36909 36909688 1269 -488 98071 -41074 -44502 -935514
36913 36913428 -97 -927 97778 -41300 -43525 -935508
36916 36917164 708 -830 97778 -41423 -43443 -935445
36920 36920900 1000 -463 98095 -41197 -43834 -935413
36924 36924644 1171 -292 98144 -40800 -44291 -935452
36928 36929136 634 -97 98071 -40136 -44222 -935526
36932 36932864 -292 -756 96923 -40287 -43005 -935603
36935 36936592 927 -1171 97998 -40822 -43362 -935601
36939 36940344 1098 -927 97534 -41173 -43793 -935672
36943 36944116 1000 -463 97875 -40898 -44116 -935661
36946 36947856 659 -1074 97119 -41273 -44020 -935750
36951 36951612 610 -903 98168 -41556 -43853 -935754
36955 36955352 927 -1074 97460 -42006 -44085 -935776
36958 36959100 1049 -122 97436 -41280 -44403 -935695
36962 36962856 1245 -756 97534 -41386 -45032 -935680
36966 36967348 415 -805 97485 -41458 -44644 -935623
36970 36971084 854 -830 97363 -41719 -44644 -935744
36974 36974824 781 -683 97607 -41683 -44709 -935760
36977 36978560 1000 -805 98413 -41824 -44897 -935813
36981 36982328 219 -488 98217 -41617 -44125 -935842
36985 36986044 341 -341 97143 -41148 -43772 -935708
36988 36989752 170 -1147 97802 -41864 -42911 -935850
36993 36993492 659 -585 97094 -41737 -42818 -935849
36997 36997224 976 -537 96728 -41534 -43164 -935847
37000 37000972 463 -1196 97314 -42041 -42793 -935766
37005 37005464 708 -805 98535 -42065 -42845 -935770
37008 37009200 439 -1123 97167 -42573 -42579 -935646
37012 37012948 561 -903 96997 -42690 -42315 -935599
37016 37016676 634 -708 97436 -42701 -42279 -935693
37019 37020412 1171 -146 97607 -42031 -42756 -935698
37023 37024156 732 -1074 98242 -42511 -42688 -935779
37027 37027904 732 -903 98071 -42761 -42704 -935818
37030 37031652 1513 146 97802 -41771 -43595 -935786
37035 37035388 1074 -708 97900 -41782 -44053 -935723
37047 37047964 756 -659 97387 -41867 -44028 -935314
37051 37051704 195 -732 97973 -41783 -43471 -935281
37054 37055424 683 -415 96557 -41436 -43364 -935307
37058 37059156 634 -439 97900 -41044 -43199 -935366
37062 37062880 708 -488 96899 -40846 -43191 -935176
37065 37066604 415 -585 97827 -40704 -42670 -935205
37069 37070328 1367 -830 97778 -40930 -43437 -935144
37073 37074080 659 -781 97216 -40988 -43346 -935092
37076 37077820 585 -610 97607 -40885 -43407 -935212
37081 37081552 415 -1342 97656 -41630 -42986 -935288
37092 37092616 -317 -122 97436 -40897 -41755 -935146
37095 37096356 659 -488 98120 -40625 -41751 -935034
37099 37100076 415 -1513 97924 -41638 -41366 -935002
37103 37103816 1220 -732 97558 -41621 -42027 -934950
37106 37107560 976 -366 98144 -41229 -42327 -935033
37110 37111292 805 -219 97827 -40657 -42389 -935027
37114 37115028 292 -976 97705 -41003 -41827 -934902
37117 37118752 781 -1025 98339 -41333 -41962 -935121
37122 37122512 1000 -1123 98583 -41853 -42318 -935133
37126 37126284 610 -1318 97924 -42527 -42128 -935219
37131 37131908 976 -463 96606 -42389 -42337 -935289
37135 37135628 1196 -830 97631 -42561 -42886 -935274
37138 37139376 659 -878 97875 -42727 -42783 -935296
37142 37143120 634 -854 96850 -43015 -42703 -935307
37146 37146860 1098 97 98583 -42109 -43216 -935369
37149 37150592 219 -1196 97998 -42594 -42604 -935257
37153 37154352 292 -1098 97485 -43088 -42097 -935268
37157 37158104 708 -1049 96874 -43535 -42039 -935252
37160 37161844 488 -317 97314 -43091 -41804 -935288
37165 37165560 1464 -561 97778 -42955 -42708 -935255
37169 37170044 878 -268 98339 -42355 -42819 -935198
37173 37173768 634 -48 97070 -41553 -42694 -935238
37177 37177504 708 -488 98315 -41282 -42603 -935186
37180 37181224 1049 -732 97534 -41395 -42866 -935098
37184 37184968 1147 -1074 97875 -41838 -43411 -935184
37188 37188736 1000 -781 97680 -41882 -43632 -935246
37191 37192488 170 -634 97070 -41866 -43022 -935287
37195 37196216 463 -1049 96801 -42303 -42670 -935290
37199 37199956 610 -1147 97436 -42717 -42513 -935312
37203 37204460 781 -415 97412 -42546 -42695 -935416
37208 37208188 610 -1171 97680 -43007 -42557 -935346
37211 37211936 878 -341 97778 -42560 -42701 -935454
37215 37215668 927 -1074 97534 -43056 -42924 -935512
37219 37219420 537 -830 98071 -43098 -42712 -935575
37222 37223152 634 -634 97827 -42920 -42560 -935457
37226 37226880 634 -1000 98168 -43195 -42482 -935460
37230 37230628 512 -952 97460 -43432 -42191 -935399
37233 37234356 805 -219 97167 -42835 -42202 -935263
37237 37238096 927 -830 97265 -42916 -42415 -935133
37241 37242580 634 -610 96801 -42871 -42355 -935027
37245 37246312 659 -903 97534 -43087 -42265 -934964
37249 37250056 585 -317 98681 -42630 -42038 -935027
37253 37253772 1293 -317 98193 -42058 -42804 -934933
37257 37257520 805 -1220 98071 -42653 -42769 -934909
37260 37261264 683 -48 97387 -41947 -42790 -934907
37264 37264996 1464 -610 97900 -41871 -43632 -934917
37268 37268736 268 -878 96923 -42010 -43104 -934902
37271 37272464 488 -634 97436 -41917 -42835 -935144
37275 37276192 268 -659 97656 -41937 -42388 -935156
37279 37280660 1074 -634 96557 -41930 -42935 -935057
37283 37284408 1025 -1000 97851 -42324 -43159 -935079
37287 37288172 634 -561 97216 -42198 -43103 -935105
37291 37291896 463 -439 97241 -41797 -42900 -935049
37295 37295608 1098 -659 97778 -41815 -43321 -935190
37299 37299364 512 -488 97998 -41554 -43046 -935225
37302 37303080 1293 -463 96704 -41357 -43839 -935138
37306 37306816 976 -805 98217 -41412 -44075 -935136
37310 37310564 683 -610 96997 -41372 -43966 -935084
37313 37314296 561 -1098 97998 -41913 -43821 -935137
37318 37318796 952 48 96459 -41077 -44119 -935068
37321 37322528 878 -463 97778 -40812 -44118 -935145
37325 37326256 1367 -781 98120 -40827 -44900 -935071
37329 37330008 1000 -585 97875 -40688 -45084 -934964
37332 37333764 292 -805 98022 -40772 -44496 -934954
37337 37337500 1123 -708 97875 -40646 -44931 -934783
37341 37341252 463 -781 98779 -40722 -44481 -934873
37344 37344988 1586 -1098 97924 -41169 -45479 -934792
37348 37348760 610 -439 98217 -40846 -45304 -934919
37360 37361216 878 -756 97949 -41113 -45949 -934803
37364 37364964 561 -585 97558 -40983 -45610 -934921
37367 37368680 488 -244 97558 -40457 -45349 -935053
37371 37372396 708 -390 97582 -40138 -45257 -934941
37376 37376120 756 -488 97363 -39863 -45297 -935049
37379 37379836 708 -1098 97900 -40298 -45304 -935035
37383 37383584 1416 -1025 97607 -40700 -46123 -935066
37387 37387344 1464 -561 98022 -40480 -46900 -935151
37390 37391088 1416 -1000 97778 -40856 -47623 -935174
37394 37394856 1074 -512 96704 -40700 -47961 -935035
37405 37406028 708 -756 97485 -40657 -47851 -935137
37408 37409748 537 -1123 97656 -41238 -47521 -935021
37412 37413492 512 -292 97802 -40901 -47202 -935129
37416 37417208 24 -512 98071 -40676 -46203 -935194
37420 37420920 634 -97 97387 -40026 -46081 -935058
37424 37424644 854 -170 97582 -39503 -46132 -935130
37428 37428380 903 -634 97558 -39418 -46239 -935119
37431 37432120 561 -976 97265 -39834 -45899 -935141
37435 37435848 805 -634 97216 -39867 -45868 -935058
37439 37439592 878 -1147 97094 -40312 -45926 -935074
37445 37445828 1342 -610 97631 -40124 -46773 -934916
37448 37449568 805 -805 98608 -40312 -46912 -935042
37452 37453320 1220 -903 97314 -40520 -47394 -935132
