##########
# Recording 341685 start
# Format: >Millis Micros AccelX AccelY AccelZ RotX RotY RotZ<
# All multiplied x100000
##########
341707 341707980 756 -1123 96557 -53136 -36223 -311661
341710 341711788 561 -708 97314 -53016 -36049 -311576
341714 341715560 708 -1123 97387 -53601 -36112 -311340
341719 341719332 634 -830 96997 -53717 -36003 -311377
341722 341723100 1293 -1342 97412 -54374 -36574 -311384
341726 341726896 439 -1098 97924 -54849 -36360 -311446
341730 341730680 219 -634 96386 -54620 -35864 -311451
341734 341734440 146 -24 97045 -53813 -35152 -311200
341739 341740132 488 -708 97143 -53987 -34670 -311182
341743 341743888 927 -830 96752 -54085 -35118 -311078
341746 341747652 1196 -1098 97509 -54422 -35896 -311176
341750 341751448 708 -1049 97265 -54811 -35919 -311165
341754 341755228 732 -805 96459 -54808 -36104 -311151
341758 341758996 439 -878 96728 -54808 -35666 -311189
341762 341762764 122 -830 97143 -54699 -35172 -311171
341766 341766544 1147 -561 97338 -54267 -35740 -311144
341770 341770320 878 -634 98144 -53884 -35919 -311200
341787 341787888 537 -1196 97656 -53963 -35614 -310710
341790 341791652 341 -903 97070 -53988 -35291 -310674
341794 341795412 1342 -878 97534 -54014 -36141 -310803
341798 341799196 463 -1074 97265 -54192 -35891 -310876
341801 341802956 -610 -1293 97265 -54709 -34383 -310969
341806 341806744 170 -170 96582 -53945 -33697 -311079
341810 341810500 1171 -732 97387 -53940 -34175 -310947
341814 341814280 952 -390 96874 -53504 -34522 -311007
341817 341818036 1318 24 97216 -52670 -35095 -311044
341821 341821800 634 -292 96826 -52216 -34846 -311091
341828 341829268 854 -1660 97558 -53302 -34561 -311145
341832 341833052 488 -756 98461 -53109 -34251 -311201
341836 341836808 805 -1220 97534 -53478 -34439 -311210
341839 341840592 927 -830 98266 -53444 -34565 -311242
341843 341844372 756 -1098 97265 -53575 -34661 -311236
341848 341848160 195 -903 97558 -53584 -34087 -311246
341851 341851940 854 -1098 97753 -53652 -34374 -311344
341855 341855728 512 -292 98242 -52833 -34367 -311409
341859 341859488 805 -1123 96411 -53000 -34608 -311483
341865 341865740 903 -952 97290 -52974 -34885 -311603
341868 341869496 805 -927 97192 -52968 -35320 -311530
341872 341873272 781 -1367 97387 -53304 -35673 -311744
341876 341877052 488 -976 98242 -53293 -35518 -311736
341879 341880808 1000 -732 97314 -52956 -36011 -311787
341883 341884580 805 -1123 96997 -53273 -36311 -311848
341888 341888372 781 -1074 97021 -53305 -36672 -312002
341892 341892156 268 -830 97436 -53216 -36229 -312066
341895 341895924 97 -903 97094 -53232 -35647 -312177
341900 341900440 805 -708 96508 -53033 -35708 -312269
341903 341904212 878 -1293 97460 -53603 -35892 -312282
341907 341907996 683 -683 97924 -53391 -35967 -312324
341911 341911756 512 -1074 97534 -53663 -35875 -312265
341914 341915536 292 -1123 97485 -53941 -35469 -312211
341918 341919320 244 -952 97241 -53938 -35086 -312321
341922 341923084 341 -1196 96728 -54296 -34782 -312340
341925 341926848 634 -756 96923 -54041 -34810 -312267
341929 341930644 537 -1342 97119 -54486 -34893 -312100
341934 341934416 585 -903 97290 -54453 -34923 -312073
341938 341938936 0 -1440 97241 -54967 -34323 -312153
341942 341942556 1196 -1171 97875 -55183 -35098 -312191
341945 341946348 439 -561 96508 -54592 -34938 -312295
341949 341950104 -805 -3930 91796 -58764 -35576 -312064
341953 341953880 -6079 -8129 103271 -66429 -28935 -312037
341957 341957664 -3564 -708 103076 -65628 -23846 -312060
341960 341961464 -512 122 98852 -64015 -22424 -312116
341964 341965224 195 -439 98291 -63104 -22130 -312080
341968 341968976 952 -1196 97119 -63134 -22830 -312199
341972 341973516 1049 -439 97094 -62280 -23691 -312284
341977 341977284 219 -390 96508 -61508 -23565 -312408
341980 341981036 1000 -1000 96630 -61323 -24398 -312415
341984 341984852 1245 -585 97851 -60785 -25556 -312550
341988 341988644 1416 -927 97290 -60613 -26741 -312509
341991 341992420 170 -1611 98168 -61314 -26409 -312461
341995 341996216 1147 -903 97753 -61076 -27342 -312517
341999 341999996 317 -1147 97070 -61219 -27073 -312545
342003 342003776 878 -244 97778 -60305 -27672 -312445
342007 342008292 830 -903 97656 -60214 -28077 -312488
342011 342012068 1025 -781 98168 -60013 -28620 -312443
342014 342015852 585 -634 97851 -59431 -28887 -312467
342019 342019624 878 -1074 96264 -59487 -29484 -312327
342023 342023416 463 -830 96777 -59281 -29329 -312240
342026 342027176 1220 -1000 97241 -59241 -30226 -312259
342030 342030980 268 -610 97290 -58639 -29833 -312144
342034 342034732 805 -1904 98413 -59640 -30297 -312236
342037 342038508 390 -781 97021 -59336 -30149 -312243
342041 342042292 732 -1196 98364 -59431 -30420 -312244
342046 342046828 927 -585 97558 -58932 -30899 -312360
342049 342050604 1000 -659 97412 -58584 -31449 -312270
342053 342054388 -73 -488 96728 -57862 -30610 -312343
342057 342058144 756 -1000 97705 -57952 -30798 -312393
342061 342061928 1220 -830 97680 -57589 -31677 -312387
342065 342065724 537 -122 96533 -56608 -31516 -312486
342069 342069496 561 -1293 96972 -56867 -31502 -312454
342072 342073264 439 -146 96533 -55917 -31576 -312418
342076 342077028 1293 -1025 96923 -56031 -32423 -312584
342093 342094044 219 -830 96826 -55900 -32046 -312928
342096 342097812 244 -756 96191 -55691 -31693 -312862
342100 342101584 439 -708 97851 -55565 -31443 -312992
342105 342105344 732 -366 97778 -54943 -31621 -312970
342108 342109084 97 -756 98388 -54703 -31093 -313007
342112 342112844 952 -1293 97875 -54964 -31570 -312825
342116 342116632 854 -585 96801 -54578 -31890 -312844
342119 342120400 830 -463 97534 -54027 -31961 -312808
342123 342124164 195 -561 95800 -53638 -31516 -312918
342127 342127924 146 -537 97363 -53172 -31096 -313029
342134 342135396 -683 -561 97631 -53094 -29821 -312823
342138 342139164 219 -268 97875 -52343 -29457 -312906
342141 342142916 488 -1147 96533 -52877 -29579 -312723
342146 342146692 390 341 97705 -51474 -29382 -312803
342150 342150428 1269 -390 96801 -50895 -30259 -312914
342153 342154196 683 -683 97387 -50719 -30425 -312939
342157 342157960 1123 -488 98144 -50253 -31089 -312897
342161 342161736 97 -708 97607 -50053 -30700 -312847
342164 342165488 683 -708 97729 -49816 -31020 -312816
342171 342171920 439 -976 96899 -49950 -31175 -313055
342174 342175676 732 -537 98193 -49544 -31403 -313000
342178 342179432 415 -1440 97314 -50395 -31219 -312977
342182 342183204 488 -976 97460 -50509 -31139 -313032
342185 342186960 561 -927 97656 -50463 -31246 -313056
342190 342190732 927 -683 96874 -50168 -31667 -313057
342194 342194504 952 -683 97119 -50008 -32231 -313034
342197 342198268 1464 -659 96533 -49743 -33283 -313003
342201 342202040 708 -1074 96899 -50115 -33385 -312924
342206 342206568 244 -1049 97387 -50284 -33014 -312699
342209 342210348 927 -659 97900 -50118 -33388 -312852
342213 342214116 415 -927 97436 -50270 -33251 -312912
342217 342217884 1049 -1367 97582 -50854 -33830 -312812
342220 342221684 512 -463 96459 -50377 -33867 -312837
342224 342225444 -48 -903 96850 -50512 -33033 -312893
342228 342229220 1074 -585 97338 -50301 -33723 -312845
342232 342232992 830 -805 97534 -50309 -33848 -312937
342236 342236768 292 -268 97729 -49500 -33666 -313053
342240 342240520 756 -1000 96850 -49718 -33940 -313086
342244 342245044 1025 -585 97802 -49450 -34302 -313011
342248 342248816 292 -415 97021 -48993 -34031 -312961
342252 342252568 903 -317 97900 -48412 -34289 -312980
342255 342256328 683 -585 97436 -48093 -34332 -312846
342259 342260088 415 -927 98046 -48199 -34119 -312943
342263 342263852 341 -952 97387 -48321 -33863 -312884
342266 342267608 341 -561 97265 -47999 -33562 -312854
342270 342271360 268 -561 97387 -47720 -33114 -312861
342275 342275108 390 -708 96313 -47618 -32855 -312934
342279 342279608 659 -756 97900 -47416 -32949 -312874
342283 342283368 634 -1342 97558 -47983 -33073 -312774
342286 342287152 268 -1489 97875 -48864 -32651 -312762
342290 342290916 585 -634 97314 -48631 -32744 -312836
342294 342294680 585 -634 97875 -48475 -32782 -312759
342297 342298444 634 -585 97753 -48122 -32921 -312790
342301 342302204 878 -976 97241 -48312 -33211 -312878
342305 342305976 585 -854 97314 -48357 -33301 -312919
342308 342309748 854 -415 97607 -47742 -33695 -312963
342312 342313512 1147 -708 98388 -47629 -34189 -312941
342317 342318036 463 -756 97412 -47556 -34078 -312893
342321 342321796 561 -708 97534 -47516 -34047 -312808
342325 342325564 683 -854 96459 -47573 -34274 -312891
342328 342329324 781 -292 97607 -46981 -34571 -312873
342332 342333092 683 -634 96997 -46906 -34648 -312916
342336 342336852 390 -878 98242 -46941 -34512 -312889
342339 342340608 415 -1074 96972 -47308 -34323 -312894
342343 342344400 878 -805 97534 -47269 -34666 -312791
342347 342348180 415 -683 97851 -47192 -34488 -312842
342351 342352684 634 -927 97314 -47211 -34470 -312666
342355 342356444 488 -561 97314 -46702 -34395 -312691
342360 342360196 708 -805 97705 -46759 -34553 -312682
342363 342363972 976 -317 97851 -46383 -34960 -312476
342367 342367728 659 -805 96606 -46376 -34978 -312490
342371 342371492 1000 -1049 97192 -46715 -35483 -312468
342374 342375292 463 -1123 97363 -47140 -35250 -312480
342378 342379068 805 -976 97241 -47415 -35491 -312390
342382 342382844 390 -805 96899 -47372 -35219 -312450
342385 342386600 390 -463 97192 -47051 -34948 -312237
342403 342403512 390 -708 98266 -46511 -34361 -312525
342407 342407260 854 -805 98193 -46544 -34803 -312516
342410 342411040 781 -830 97216 -46587 -35000 -312541
342414 342414824 415 -1074 96997 -46966 -34752 -312409
342418 342418600 708 -219 97485 -46210 -34856 -312469
342421 342422360 439 -1391 97265 -46868 -34673 -312427
342425 342426136 854 -537 98022 -46438 -34941 -312538
342429 342429896 1196 -683 98022 -46310 -35633 -312497
342432 342433672 1196 -585 97314 -46135 -36272 -312565
342440 342441168 659 -830 97802 -46320 -36600 -312456
342444 342444936 878 -585 97216 -46074 -36931 -312469
342448 342448704 512 -1293 98046 -46559 -36812 -312635
342452 342452480 1098 -732 97998 -46521 -37340 -312566
342455 342456256 1318 -878 97338 -46807 -38232 -312622
342459 342460040 952 -854 96777 -46944 -38669 -312794
342463 342463812 122 -805 97021 -46872 -38046 -312817
342467 342467592 805 -439 97045 -46482 -38167 -312822
342470 342471348 903 -317 97143 -45964 -38478 -312768
342475 342476808 659 -854 97241 -46069 -38609 -312769
342479 342480588 585 -708 97509 -45844 -38432 -312617
342483 342484340 830 -756 97607 -45847 -38635 -312612
342488 342488112 659 -903 96997 -45891 -38701 -312553
342491 342491884 830 -854 96557 -45989 -38903 -312559
342495 342495668 781 -585 96997 -45799 -39041 -312500
342499 342499440 683 -439 98095 -45285 -39025 -312510
342502 342503200 512 -610 97363 -45225 -38803 -312450
342506 342506956 439 -659 97753 -45153 -38508 -312473
342510 342510712 903 -1147 97314 -45584 -38764 -312506
342514 342515252 146 -756 96679 -45385 -38098 -312476
342518 342519020 683 -463 97143 -45142 -38194 -312559
342521 342522764 415 -1000 97949 -45412 -37847 -312578
342525 342526544 781 -439 97802 -45006 -38054 -312808
342530 342530300 463 -1000 97192 -45274 -37779 -312762
342533 342534076 634 -1245 97827 -45793 -37740 -312775
342537 342537860 878 -781 97143 -45704 -37953 -312782
342541 342541640 537 -415 96166 -45318 -37804 -312783
342544 342545392 439 -927 96948 -45428 -37583 -312925
342549 342549904 463 -878 98486 -45592 -37356 -312981
342553 342553668 830 -634 97387 -45325 -37453 -312894
342556 342557432 463 -1123 96850 -45725 -37489 -312962
342560 342561212 1464 -634 97338 -45689 -38448 -312921
342564 342564984 170 -1342 97534 -46372 -37850 -312853
342567 342568760 1098 -805 97119 -46315 -38430 -312923
342572 342572548 488 -708 97363 -46277 -38270 -312868
342576 342576300 805 -830 97387 -46195 -38428 -312832
342579 342580072 927 -756 97045 -46167 -38793 -312815
342583 342583852 976 -1049 96972 -46575 -39108 -312712
342587 342588372 585 -878 97460 -46667 -39096 -312895
342591 342592144 659 -1074 97729 -47066 -38994 -312841
342595 342595924 512 -1074 97485 -47331 -38864 -312805
342599 342599696 463 -659 97802 -47158 -38677 -312741
342602 342603460 1440 -830 97802 -47183 -39606 -312870
342606 342607248 341 -830 96826 -47263 -39229 -312798
342610 342611012 1123 -537 97290 -46961 -39751 -312794
342614 342614792 561 -1489 97167 -47914 -39585 -312955
342618 342618552 1318 -317 97265 -47309 -40380 -312923
342622 342623072 512 -1269 97290 -47937 -40059 -312857
342626 342626848 756 -512 98022 -47521 -40077 -312825
342630 342630596 1318 -1245 96606 -48102 -40851 -312826
342633 342634392 146 -73 97265 -47216 -40197 -312894
342637 342638164 390 -1391 97949 -47836 -39763 -312827
342641 342641928 -195 -732 97143 -47780 -38681 -312800
342644 342645688 830 -708 97534 -47748 -38784 -312819
342648 342649452 634 -781 97485 -47803 -38715 -312795
342652 342653228 805 -244 97045 -47172 -38939 -312773
342657 342657740 878 -708 97290 -47092 -38877 -312811
342661 342661508 512 -805 98022 -47138 -38616 -312733
342665 342665272 585 -219 97485 -46518 -38530 -312697
342668 342669044 732 -854 98046 -46684 -38510 -312667
342672 342672812 561 -585 97778 -46451 -38391 -312714
342676 342676576 1049 -1074 97582 -46830 -38854 -312737
342679 342680380 0 -659 97094 -46745 -38038 -312707
342683 342683988 1025 -756 97070 -46610 -38543 -312809
342687 342687764 585 -512 97436 -46202 -38414 -312846
342690 342691512 830 -952 97265 -46407 -38723 -312846
342709 342709528 781 -585 97705 -46524 -39416 -313728
342712 342713284 756 -708 96240 -46534 -39603 -313717
342716 342717048 0 -854 97656 -46630 -38741 -313690
342720 342720660 1220 -463 98095 -46298 -39350 -313622
342723 342724424 1220 -170 96752 -45433 -39963 -313629
342727 342728200 830 -659 97363 -45239 -40148 -313702
342731 342731964 903 -390 97216 -44760 -40344 -313666
342734 342735724 1293 -952 98291 -44934 -41037 -313722
342738 342739520 634 -537 97582 -44773 -40927 -313791
342746 342746988 463 -1196 96582 -45541 -40664 -313782
342750 342750768 512 -488 97387 -45242 -40515 -313778
342754 342754512 512 -854 98339 -45343 -40174 -313765
342757 342758268 1123 -488 97680 -44975 -40589 -313698
342761 342762040 610 -952 97387 -45185 -40462 -313705
342765 342765816 732 -659 97387 -45108 -40508 -313660
342768 342769572 830 -219 97290 -44394 -40642 -313697
342772 342773336 219 -561 97119 -44213 -40080 -313783
342776 342777096 268 -854 96362 -44377 -39559 -313839
342779 342780856 585 -732 97094 -44380 -39408 -313778
342786 342786480 903 -561 96826 -44339 -39604 -313752
342790 342790240 244 -805 97338 -44388 -39016 -313775
342793 342794008 927 -708 97045 -44434 -39184 -314075
342797 342797772 0 -952 96582 -44690 -38376 -314085
342800 342801380 341 -561 97607 -44452 -38102 -314236
342804 342805132 97 -439 96630 -44163 -37476 -314127
342808 342808880 244 -927 97436 -44278 -37007 -314109
342811 342812636 463 -341 97387 -43839 -36809 -314183
342815 342816384 659 -830 98339 -43817 -36725 -314080
342820 342820904 292 -756 97607 -43915 -36325 -314112
342823 342824668 1196 -732 97265 -43879 -37019 -314219
342828 342828444 610 -1196 97216 -44462 -37063 -314320
342832 342832228 317 -1171 97460 -45060 -36764 -314380
342835 342836000 488 -732 97241 -45023 -36475 -314216
342839 342839760 927 -1123 97729 -45436 -36894 -314084
342843 342843544 781 -1147 97729 -45968 -37142 -314204
342846 342847324 1000 317 97778 -44804 -37628 -314101
342850 342851100 -122 -903 96874 -45044 -36704 -314181
342854 342854876 756 -1367 98095 -45719 -36794 -314199
342858 342859392 390 -659 96166 -45742 -36721 -314132
342862 342863144 1074 -903 97631 -45907 -37191 -314233
342865 342866912 1269 -781 97607 -45889 -37917 -314289
342870 342870712 1098 -610 97143 -45843 -38465 -314389
342874 342874492 1098 -732 97094 -45806 -39048 -314403
342878 342878272 1342 -854 96972 -45896 -39919 -314435
342881 342882060 854 -1025 97363 -46186 -40135 -314485
342885 342885848 732 -244 97338 -45525 -40192 -314458
342889 342889612 1000 -927 97387 -45693 -40505 -314486
342893 342894144 732 -1367 97338 -46331 -40583 -314617
342897 342897920 24 -903 97875 -46540 -39726 -314599
342900 342901668 439 -1440 97875 -47381 -39473 -314624
342904 342905436 903 -634 96972 -47311 -39778 -314612
342908 342909208 341 -1538 98535 -48123 -39413 -314640
342912 342912964 195 -122 96557 -47173 -38883 -314420
342916 342916728 854 -976 97021 -47486 -38997 -314341
342920 342920496 756 -732 97631 -47384 -39103 -314397
342923 342924260 341 -1464 98168 -48080 -38668 -314466
342927 342928016 415 -708 97290 -47954 -38363 -314485
342932 342932524 415 -854 97680 -48035 -38229 -314376
342935 342936288 781 -1147 96874 -48463 -38421 -314370
342939 342940080 610 -537 98120 -48199 -38417 -314334
342943 342943844 903 -1049 97485 -48501 -38708 -314330
342946 342947636 390 -1000 97778 -48736 -38544 -314282
342950 342951412 805 -1245 97875 -49247 -38669 -314324
342955 342955204 268 -1000 96777 -49443 -38097 -314404
342958 342958988 463 -585 96923 -49191 -37898 -314398
342962 342962740 878 -1000 96508 -49337 -38234 -314527
342966 342967268 878 244 96240 -48103 -38405 -314528
342970 342971028 854 -463 96777 -47704 -38652 -314614
342974 342974792 610 -1123 96459 -48086 -38566 -314651
342978 342978580 97 -830 97265 -48121 -37956 -314720
342981 342982344 561 -1049 98168 -48475 -37760 -314764
342985 342986120 756 -952 97167 -48693 -37890 -314723
342989 342989884 463 -976 97241 -48916 -37600 -314660
342992 342993648 1391 -585 96215 -48619 -38610 -314758
342996 342997420 24 -512 97656 -48352 -37726 -314759
343014 343015356 537 -415 96240 -47963 -37725 -314969
343018 343019112 854 -952 96386 -48209 -37995 -314970
343022 343022892 708 -537 97534 -47908 -38047 -314957
343025 343026640 1171 -805 97778 -48052 -38566 -315006
343029 343030428 683 -878 98120 -48065 -38751 -314976
343033 343034200 927 -537 97729 -47739 -39116 -315091
343036 343037948 317 -1318 97167 -48311 -38686 -315031
343041 343041724 1049 -878 96948 -48421 -39007 -315123
343045 343045516 1245 -830 96899 -48449 -39795 -315156
343049 343049300 561 -634 97265 -48238 -39753 -315120
343056 343056780 1269 -659 97265 -48189 -40626 -315238
343060 343060556 708 -854 96508 -48241 -40634 -315230
343063 343064344 341 -781 97680 -48170 -40177 -315328
343067 343068104 439 -585 97436 -47848 -39937 -315315
343071 343071860 561 -927 97778 -47984 -39722 -315361
343074 343075624 1074 -610 97387 -47804 -40296 -315423
343078 343079408 927 -585 97045 -47537 -40543 -315414
343083 343083172 805 -634 97119 -47384 -40692 -315452
343086 343086944 122 -878 97534 -47340 -40060 -315525
343092 343093184 610 -903 97729 -47383 -40086 -315600
343096 343096952 1000 -1000 96533 -47625 -40446 -315588
343100 343100760 97 -537 96704 -47229 -39741 -315630
343103 343104504 537 -805 97338 -47347 -39733 -315557
343107 343108272 512 -976 97436 -47598 -39508 -315595
343111 343112032 317 -952 97290 -47782 -39022 -315586
343115 343115788 878 -1025 96093 -48015 -39274 -315628
343118 343119568 732 -1489 97485 -48866 -39394 -315555
343122 343123340 976 -1123 97070 -49175 -39739 -315592
343127 343127128 1220 -927 97607 -49300 -40411 -315506
343131 343131668 708 -830 97558 -49261 -40473 -315421
343135 343135440 1586 -805 98095 -49371 -41470 -315339
343138 343139224 585 -244 96923 -48686 -41258 -315224
343142 343142976 756 -1074 98168 -48920 -41247 -315212
343146 343146764 463 -512 97802 -48602 -40995 -315314
343149 343150504 170 -1000 97460 -48922 -40403 -315394
343153 343154280 561 -952 96826 -49030 -40429 -315315
343157 343158048 1245 -1123 97460 -49416 -41082 -315421
343160 343161844 830 -244 97656 -48680 -41232 -315464
343165 343166372 170 -756 97412 -48711 -40597 -315419
343170 343170132 146 -1489 97338 -49531 -40009 -315534
343173 343173912 903 -976 96728 -49693 -40168 -315608
343177 343177692 561 -756 97192 -49526 -40064 -315545
343181 343181448 1489 -854 97607 -49526 -41058 -315637
343184 343185232 244 -854 97705 -49474 -40538 -315680
343188 343189000 805 -1049 96679 -49739 -40738 -315580
343192 343192784 878 -610 97192 -49528 -40971 -315658
343195 343196544 -195 -878 97998 -49555 -39962 -315616
343200 343201080 366 -634 97192 -49344 -39489 -315739
343203 343204824 537 -512 97582 -48949 -39429 -315758
343207 343208576 976 -561 97143 -48679 -39691 -315782
343212 343212340 317 -708 96704 -48577 -39204 -315819
343215 343216084 537 -512 97827 -48274 -38980 -315777
343219 343219828 341 -805 97582 -48286 -38682 -315771
343223 343223588 268 -317 97778 -47698 -38248 -315758
343226 343227340 268 -952 96289 -47974 -37799 -315869
343230 343231104 1074 -537 98339 -47637 -38250 -315949
343234 343234880 781 -1098 97778 -48067 -38474 -315876
343238 343239408 708 -390 97705 -47685 -38550 -315901
343242 343243160 415 -732 97436 -47728 -38305 -315966
343246 343246908 927 -488 98046 -47377 -38590 -315975
343249 343250680 1049 -634 96630 -47262 -39119 -316007
343254 343254456 -195 -903 96777 -47412 -37995 -315891
343258 343258236 1000 -585 98144 -47104 -38397 -315956
343261 343262016 805 -585 97290 -46848 -38485 -315993
343265 343265780 463 -927 97387 -46977 -38299 -315957
343269 343269544 463 -708 96826 -46778 -38066 -315994
343273 343274044 1293 -952 97265 -46944 -38937 -316125
343277 343277824 1000 -1049 97070 -47295 -39351 -316144
343280 343281620 659 -97 96972 -46269 -39346 -316218
343284 343285388 390 -976 97582 -46498 -39033 -316170
343288 343289156 585 -390 96459 -45984 -38932 -316138
343291 343292908 634 -1025 98095 -46317 -38852 -316088
343296 343296688 585 -878 97192 -46601 -38837 -316143
343300 343300452 708 -439 97631 -46321 -38970 -315969
343304 343304204 268 -170 97460 -45668 -38459 -315983
343307 343307956 1123 -1000 96606 -45992 -39001 -315838
343324 343325384 146 -170 96777 -45358 -38228 -315789
343328 343329144 854 -341 97827 -44754 -38489 -315675
343332 343332896 1123 -854 97070 -44904 -39137 -315813
343335 343336680 244 -903 97558 -45137 -38712 -315600
343340 343340436 781 -512 97143 -44836 -38753 -315458
343344 343344200 976 -952 96142 -45026 -39144 -315541
343347 343347976 317 -415 97582 -44560 -38719 -315524
343351 343351748 781 -952 97875 -44826 -38731 -315506
343355 343355520 488 -1000 96215 -45114 -38648 -315557
343362 343363012 341 -1513 97387 -45985 -38471 -315462
343366 343366780 439 -610 97045 -45805 -38222 -315485
343369 343370540 292 -756 96997 -45785 -37693 -315492
343373 343374308 -24 -341 96923 -45248 -36886 -315465
343377 343378060 708 -292 97216 -44698 -36994 -315466
343380 343381824 805 -1245 97753 -45326 -37097 -315619
343385 343385600 585 -1440 98388 -46206 -37066 -315643
343389 343389372 439 -1293 98095 -46826 -36948 -315666
343392 343393152 537 -1000 97534 -47019 -36676 -315746
343399 343399560 -73 -1342 98437 -47599 -35762 -315683
343402 343403348 97 -756 97265 -47535 -35159 -315586
343406 343407108 927 -732 97290 -47551 -35681 -315454
343410 343410868 390 -317 97778 -47045 -35414 -315495
343413 343414616 634 -317 98120 -46447 -35438 -315527
343417 343418376 1098 -634 97045 -46318 -36118 -315555
343421 343422152 24 -903 97241 -46512 -35385 -315684
343425 343425904 292 -512 97387 -46187 -35037 -315776
343429 343429664 1025 -1342 97192 -46977 -35516 -315744
343433 343433452 756 -683 97680 -46850 -35722 -315736
343437 343437960 976 -732 97143 -46876 -36171 -315752
343441 343441724 97 -1171 97705 -47256 -35515 -315757
343444 343445488 73 -488 97436 -46810 -34888 -315721
343448 343449244 390 -1293 97582 -47473 -34538 -315691
343452 343453028 537 -708 97216 -47359 -34478 -315669
343456 343456796 708 -537 97070 -47173 -34532 -315687
343459 343460548 732 -415 96289 -46755 -34668 -315737
343463 343464300 781 -1245 97363 -47273 -34879 -315797
343468 343468080 683 -878 97851 -47381 -34961 -315834
343472 343472604 219 -830 96093 -47431 -34581 -315768
343476 343476372 805 -976 97070 -47596 -34874 -315736
343479 343480144 317 -878 97534 -47564 -34480 -315694
343483 343483904 24 -585 97729 -47283 -33839 -315630
343487 343487656 878 -537 97802 -47018 -34154 -315526
343490 343491412 927 -878 97143 -47289 -34640 -315465
343494 343495180 537 -561 97753 -46886 -34615 -315503
343498 343498932 1098 -708 97485 -46845 -35207 -315553
343501 343502712 756 -781 98413 -46807 -35590 -315481
343505 343506488 634 -659 98071 -46595 -35629 -315585
343510 343511004 952 -561 98046 -46329 -36018 -315624
343514 343514772 366 -195 97705 -45670 -35676 -315613
343518 343518524 1025 -805 97070 -45812 -36197 -315581
343521 343522308 585 -1147 97119 -46147 -36176 -315541
343525 343526092 952 -415 97558 -45779 -36442 -315523
343529 343529856 756 -1074 97314 -46157 -36741 -315510
343533 343533636 1000 -805 96899 -46242 -37183 -315515
343536 343537436 585 -732 96704 -46330 -37214 -315528
343540 343541200 610 -585 97045 -46043 -37188 -315606
343544 343545708 781 -781 97167 -46009 -37362 -315570
343548 343549500 610 -512 97802 -45766 -37289 -315571
343553 343553256 97 -659 97338 -45593 -36683 -315594
343556 343557016 415 -732 97290 -45629 -36453 -315675
343560 343560772 805 -1318 96704 -46304 -36567 -315639
343564 343564560 781 -1025 97412 -46621 -36753 -315580
343567 343568348 1293 -317 97607 -46213 -37462 -315556
343571 343572116 561 -659 96997 -45943 -37451 -315532
343575 343575872 585 -732 98095 -45913 -37433 -315638
343578 343579620 878 -878 96679 -46078 -37697 -315652
343583 343584148 927 -854 98120 -46156 -38185 -315598
343587 343587932 805 -927 97314 -46322 -38349 -315576
343590 343591712 390 -732 97631 -46245 -37912 -315521
343595 343595476 537 -756 97607 -46216 -37847 -315516
343599 343599228 1513 -219 97338 -45646 -38847 -315411
343602 343603000 756 -1416 97631 -46343 -38967 -315479
343606 343606776 903 -952 96533 -46633 -39262 -315452
343610 343610552 756 -903 97802 -46760 -39406 -315585
343613 343614324 1025 -903 97192 -46795 -39943 -315617
343630 343631672 952 -683 98413 -47070 -40570 -316009
343634 343635436 659 -708 97680 -46911 -40525 -316055
343639 343639196 683 -561 97119 -46659 -40519 -316060
343642 343642960 537 -512 97021 -46518 -40328 -316055
343646 343646712 878 -1269 97070 -47038 -40471 -316096
343650 343650496 659 -854 96728 -47089 -40472 -316065
343653 343654264 292 -976 96972 -47392 -39957 -316127
343657 343658024 317 -781 97802 -47320 -39348 -316188
343661 343661788 512 -585 97412 -47060 -39188 -316216
343664 343665540 341 -805 97363 -47104 -38756 -316058
343672 343673024 48 -1293 97998 -47825 -38022 -315867
343675 343676800 268 -756 97631 -47680 -37573 -315874
343680 343680560 903 -830 97338 -47848 -37852 -315669
343684 343684328 708 -903 97485 -47918 -37902 -315711
343687 343688088 854 -878 97631 -47910 -38150 -315705
343691 343691872 463 -1147 97192 -48234 -37811 -315547
343695 343695640 1074 -683 97363 -48084 -38240 -315593
343698 343699408 292 -1293 96899 -48690 -37651 -315692
343702 343703184 878 -927 97363 -48870 -37875 -315564
343707 343708636 1562 -683 97412 -48601 -38877 -315481
343711 343712412 97 -1220 97363 -49086 -38187 -315622
343715 343716180 1098 -195 97534 -48326 -38721 -315618
343719 343719972 1049 -561 97143 -48063 -39245 -315523
343723 343723744 1293 -195 97143 -47357 -40035 -315577
343727 343727524 585 -903 96899 -47542 -39929 -315577
343731 343731300 439 -732 97094 -47529 -39575 -315541
343734 343735056 1025 -756 96850 -47446 -39928 -315499
343738 343738844 1293 -805 97485 -47508 -40706 -315532
343742 343743376 317 -1025 97119 -47799 -40335 -315600
343746 343747152 903 -439 97265 -47285 -40476 -315478
343750 343750908 1342 -219 97143 -46640 -41158 -315424
343753 343754676 463 -634 97021 -46459 -40922 -315376
343757 343758432 781 -1000 97094 -46964 -41004 -315389
343761 343762224 683 -1123 98168 -47381 -40989 -315380
343764 343766012 585 -830 97509 -47548 -40872 -315356
343769 343769788 1074 -1025 97070 -47798 -41266 -315394
343773 343773588 854 -219 96850 -47193 -41445 -315399
343777 343777360 1025 -610 98315 -47105 -41764 -315363
343781 343781892 341 -732 97143 -47088 -41292 -315363
343785 343785648 415 -488 96533 -46759 -40921 -315272
343788 343789396 683 -97 98071 -45934 -40886 -315243
343792 343793164 268 -854 97412 -46013 -40409 -315316
343796 343796928 976 -854 97314 -46122 -40668 -315353
343799 343800696 244 -659 98364 -45904 -40130 -315360
343803 343804460 24 -878 97021 -46067 -39293 -315465
343808 343808216 439 -903 96752 -46331 -39162 -315496
343811 343811972 952 -1562 97290 -47252 -39431 -315417
343816 343816512 732 -732 96826 -47247 -39530 -315314
343819 343820264 1220 -1074 96899 -47668 -40194 -315411
343823 343824064 1171 -683 97070 -47625 -40698 -315424
343827 343827840 317 -976 96899 -47896 -40410 -315443
343831 343831600 854 -634 98022 -47637 -40491 -315416
343834 343835368 708 -1416 97607 -48450 -40371 -315447
343838 343839140 512 -1049 97412 -48757 -40124 -315484
343842 343842912 463 -1123 97338 -49002 -39874 -315521
343845 343846688 488 -1171 97290 -49404 -39679 -315375
343849 343850472 463 -1269 97070 -49851 -39501 -315193
343854 343854988 146 -927 97192 -50045 -38893 -315230
343858 343858760 1098 -781 97729 -50105 -39418 -315219
343862 343862556 463 -805 97509 -50065 -39186 -315242
343865 343866332 -73 -1391 97827 -50617 -38271 -315182
343869 343870108 561 -952 97534 -50713 -38144 -315128
343873 343873880 830 -268 97705 -50020 -38299 -315197
343877 343877644 1123 -805 97143 -50011 -38815 -315197
343880 343881440 952 -1196 98291 -50467 -39283 -315155
343884 343885232 683 -1342 97290 -50987 -39331 -315183
343888 343889752 585 -1000 97290 -51184 -39184 -315056
343892 343893540 756 -830 97094 -51351 -39439 -315072
343897 343897308 903 -781 96728 -51242 -39686 -315031
343900 343901076 268 -1123 97363 -51708 -39128 -315093
343904 343904844 610 -1074 96874 -52000 -39052 -315179
343908 343908632 585 -1098 97045 -52290 -39055 -315289
343911 343912408 903 -854 97802 -52259 -39263 -315290
343915 343916180 1147 -659 98315 -52014 -39842 -315175
343919 343919968 415 -927 97094 -52141 -39577 -315290
343938 343938356 781 -512 98217 -50736 -40006 -315238
343941 343942112 854 -390 97094 -50219 -40190 -315261
343945 343945884 634 -561 97973 -49879 -40083 -315317
343949 343949640 292 -512 98022 -49545 -39662 -315244
343952 343953384 390 -512 97387 -49136 -39353 -315341
343956 343957136 415 -732 96923 -49087 -39048 -315354
343960 343960892 292 -366 98022 -48499 -38602 -315405
343963 343964632 439 -732 96826 -48493 -38293 -315521
343967 343968384 390 -415 97827 -48095 -37934 -315528
343971 343972128 122 -781 96484 -48049 -37305 -315552
343979 343979616 1391 -1025 96923 -48129 -37887 -315608
343983 343983408 48 -1049 96459 -48307 -37118 -315558
343986 343987172 634 -927 97143 -48405 -37104 -315518
343990 343990944 463 -659 96630 -48364 -36789 -315653
343994 343994696 659 -1049 97973 -48706 -36737 -315726
343998 343998476 830 -585 97387 -48374 -36936 -315709
344001 344002240 292 -659 97143 -48245 -36581 -315801
344005 344005996 854 -732 98168 -48114 -36813 -315865
344009 344009756 903 -781 98291 -48042 -37253 -315852
344014 344015400 512 -1538 97314 -48849 -37027 -315991
344018 344019172 634 -1074 96435 -49078 -37047 -315945
344022 344022952 634 -708 96972 -48831 -36962 -315977
344026 344026712 732 -659 97363 -48811 -37106 -315898
344030 344030476 708 -610 97436 -48595 -37216 -315862
344033 344034236 659 -537 98608 -48225 -37217 -315832
344037 344037996 708 -1318 96655 -48807 -37285 -315747
344041 344041768 903 -634 97851 -48629 -37658 -315693
344044 344045528 659 -805 97558 -48754 -37598 -315742
344048 344049300 878 -610 97045 -48513 -37910 -315743
344053 344053820 366 -1196 96801 -48925 -37559 -315738
344056 344057592 1049 -805 97436 -48950 -38045 -315763
344060 344061384 366 -927 98071 -49078 -37696 -315658
344065 344065140 366 -878 96337 -49148 -37416 -315727
344068 344068904 708 -415 97167 -48560 -37427 -315649
344072 344072660 317 -1074 96704 -48863 -37044 -315750
344076 344076444 1147 -634 97631 -48668 -37589 -315686
344079 344080224 512 -1074 96655 -49024 -37466 -315760
344083 344084008 390 -1196 98291 -49452 -37198 -315755
344087 344088524 195 -1416 97656 -50030 -36639 -315932
344091 344092300 292 -854 97705 -50189 -36306 -316043
344095 344096060 805 -903 97387 -50249 -36593 -316025
344098 344099836 463 -537 98168 -49944 -36355 -316053
344102 344103588 952 -1171 97412 -50380 -36948 -315901
344107 344107376 1074 -927 97460 -50548 -37475 -315963
344111 344111168 805 -708 99243 -50374 -37680 -315964
344114 344114944 732 -878 98144 -50394 -37785 -315983
344118 344118732 854 -830 97729 -50374 -38091 -315873
344122 344122508 1147 -561 97021 -50090 -38660 -315952
344126 344127036 390 -1220 97143 -50567 -38456 -315907
344130 344130812 366 -1269 97387 -50993 -38155 -315884
344133 344134580 366 -854 97338 -50939 -37665 -315891
344137 344138340 878 -1123 97021 -51433 -37976 -315880
344141 344142128 952 -952 97338 -51558 -38304 -315894
344144 344145896 488 -366 98754 -50962 -38124 -315807
344148 344149648 878 -1367 97607 -51670 -38397 -315823
344153 344153432 219 -976 97460 -51849 -37926 -315884
344157 344157200 781 -463 97534 -51295 -38208 -315934
344161 344161708 1025 -1220 96997 -51647 -38694 -315917
344165 344165508 463 -1123 97778 -51941 -38430 -315904
344168 344169284 878 -952 97631 -52003 -38654 -316112
344172 344173064 732 -1098 97265 -52263 -38625 -316099
344176 344176844 317 -732 97241 -52042 -38183 -316191
344179 344180592 1196 -878 97143 -52015 -38971 -316191
344183 344184392 585 -1074 97705 -52279 -38744 -316247
344187 344188168 756 -1049 97412 -52411 -38938 -316275
344190 344191936 -73 -805 97656 -52415 -37867 -316352
344196 344196456 390 -927 97387 -52460 -37387 -316335
344200 344200224 659 -878 98266 -52423 -37258 -316253
344203 344204000 366 -1000 97924 -52692 -36932 -316278
344207 344207768 292 -463 97509 -52085 -36365 -316159
344211 344211516 -122 -805 98364 -52096 -35547 -316096
344214 344215300 512 -976 97192 -52273 -35383 -316029
344218 344219060 805 -683 96850 -52118 -35698 -316094
344222 344222832 659 -659 96850 -51888 -35766 -316053
344225 344226612 854 -830 97363 -51871 -36036 -315956
344229 344230392 537 -561 97094 -51574 -35843 -315865
344248 344248724 122 -292 98242 -51188 -35497 -316445
344252 344252480 1098 -585 97412 -50859 -36023 -316432
344255 344256264 1000 -659 97241 -50555 -36413 -316573
344259 344260044 341 -1416 96508 -51320 -36102 -316473
344263 344263804 390 -48 97412 -50357 -35828 -316574
344266 344267564 976 -1025 98657 -50507 -36356 -316654
344270 344271352 708 -659 96850 -50278 -36437 -316563
344274 344275124 610 -561 97314 -49921 -36407 -316541
344278 344278888 366 -1074 97875 -50250 -36261 -316572
344286 344286380 1074 -1391 96606 -51244 -36992 -316744
344289 344290172 537 -659 98022 -50872 -36955 -316580
344293 344293928 24 -1245 97534 -51313 -36218 -316520
344297 344297704 122 -1000 97509 -51379 -35590 -316520
344300 344301480 390 -1318 97509 -51879 -35364 -316576
344304 344305248 805 -708 97729 -51703 -35652 -316497
344308 344309020 122 -683 97412 -51532 -35116 -316543
344311 344312780 976 -390 97509 -50855 -35552 -316495
344315 344316548 683 -1245 97021 -51334 -35609 -316508
344322 344322776 878 -1489 96606 -52244 -35976 -316552
344326 344326560 756 -805 97167 -52160 -36223 -316566
344330 344330332 1196 -537 96923 -51757 -36982 -316617
344333 344334116 439 -341 97412 -51204 -36858 -316545
344337 344337872 463 -219 96777 -50535 -36717 -316614
344341 344341624 756 -585 98681 -50220 -36810 -316669
344344 344345376 1220 -585 97387 -49972 -37483 -316792
344348 344349156 1074 -1049 97363 -50187 -37990 -316816
344352 344352956 585 -756 96655 -50077 -37986 -316885
344355 344356728 1367 -317 96850 -49501 -38894 -316849
344360 344361252 610 -512 97192 -49080 -38802 -316949
344364 344365004 805 -1171 97070 -49490 -39016 -317078
344368 344368792 781 -854 97534 -49547 -39048 -317133
344372 344372568 585 -1098 96289 -49771 -38962 -317198
344376 344376364 317 -219 96508 -49186 -38553 -317125
344379 344380116 610 -830 97094 -49219 -38392 -317095
344383 344383888 439 -512 97363 -48907 -38098 -317078
344387 344387636 708 -512 98095 -48556 -38304 -317014
344390 344391388 634 -366 96484 -48099 -38152 -316850
344395 344395892 537 -1220 96801 -48644 -37979 -316741
344398 344399672 537 -1220 96655 -49162 -37895 -316693
344402 344403456 732 -756 98071 -49104 -38018 -316592
344407 344407216 830 -585 97143 -48837 -38207 -316620
344410 344410980 1049 -463 96459 -48419 -38741 -316609
344414 344414756 512 -415 97802 -47943 -38501 -316573
344418 344418508 -48 -170 97631 -47150 -37681 -316605
344421 344422276 439 -1000 97802 -47328 -37421 -316569
344425 344426056 537 -1147 97192 -47879 -37362 -316540
344429 344429836 952 -830 97558 -47866 -37682 -316623
344433 344434352 952 -1440 97021 -48530 -37907 -316601
344437 344438140 976 -756 97607 -48463 -38400 -316597
344441 344441900 634 -1074 97534 -48784 -38393 -316538
344444 344445680 -97 -1196 96948 -49164 -37349 -316592
344449 344449464 634 -878 97485 -49206 -37404 -316592
344453 344453236 756 -610 97680 -49074 -37430 -316648
344456 344456996 610 -830 96728 -49060 -37323 -316612
344460 344460772 195 -903 97607 -49158 -36831 -316567
344464 344464548 366 -1025 97338 -49357 -36594 -316613
344468 344469064 268 -830 97924 -49552 -36300 -316484
344472 344472828 488 -830 97802 -49571 -36076 -316521
344475 344476576 1000 -537 96264 -49257 -36591 -316479
344479 344480368 1220 -463 97021 -48833 -37220 -316462
344483 344484140 781 -1000 97778 -49089 -37407 -316512
344486 344487920 -48 -1049 96899 -49422 -36532 -316464
344491 344491712 1245 -756 96582 -49334 -37080 -316442
344495 344495500 830 -415 97802 -48772 -37201 -316255
344499 344499256 683 -561 97192 -48437 -37234 -316297
344503 344503732 146 -781 97924 -48414 -36586 -316188
344507 344507504 830 -781 96289 -48489 -36871 -316339
344510 344511280 439 -610 96630 -48430 -36651 -316468
344514 344515036 585 -683 97241 -48251 -36633 -316537
344518 344518792 927 -805 97778 -48231 -37066 -316497
344521 344522572 537 -1245 96899 -48777 -36843 -316497
344525 344526356 1171 -976 95971 -49009 -37517 -316580
344529 344530144 708 -537 96606 -48810 -37550 -316599
344532 344533892 805 -244 97363 -48049 -37751 -316875
344537 344537660 805 -756 97485 -47884 -37927 -316869
344554 344555440 73 -537 97436 -48302 -36479 -317261
344558 344559180 781 -341 97167 -47717 -36757 -317341
344562 344562936 976 -97 97509 -46856 -37100 -317319
344565 344566684 366 -878 97558 -46888 -36708 -317246
344569 344570436 1025 -854 97998 -47022 -37169 -317284
344573 344574228 805 -610 96435 -46905 -37410 -317297
344577 344577988 0 -952 97094 -47140 -36682 -317206
344581 344581608 512 -903 96923 -47369 -36472 -317151
344585 344585364 366 -830 97534 -47358 -36161 -317120
344592 344592840 463 -1293 96826 -48050 -35751 -317046
344596 344596612 830 -805 96801 -48098 -36039 -316928
344599 344600388 878 -903 97363 -48099 -36349 -316819
344603 344604160 830 -854 97582 -48151 -36622 -316828
344607 344607940 634 -805 97607 -48175 -36637 -316778
344610 344611720 585 -1196 97534 -48541 -36643 -316730
344614 344615504 1000 -561 97460 -48388 -37084 -316749
344619 344619280 708 -195 97265 -47706 -37101 -316860
344622 344623032 195 -537 97412 -47385 -36592 -316812
344626 344626800 1049 -1220 97045 -47862 -36971 -316910
344632 344633252 463 -390 97705 -47303 -36762 -316975
344636 344637000 -24 -756 97778 -47407 -36072 -316878
344640 344640756 48 -634 97167 -47142 -35420 -316906
344643 344644512 488 -927 97119 -47253 -35356 -316840
344647 344648272 732 -952 97680 -47427 -35511 -316828
344651 344652048 244 -756 96826 -47389 -35181 -316737
344654 344655804 878 -268 97021 -46814 -35501 -316652
344658 344659568 1245 -1220 97998 -47232 -36235 -316821
344663 344663360 781 -878 96679 -47286 -36447 -316808
344667 344667888 390 -1000 98364 -47466 -36278 -316888
344671 344671664 610 -830 98120 -47478 -36312 -316925
344675 344675444 732 -317 97045 -46869 -36471 -316820
344678 344679200 634 -683 97021 -46735 -36602 -316797
344682 344682980 -97 -366 96752 -46262 -35747 -316742
344686 344686740 244 -830 96874 -46262 -35305 -316688
344689 344690504 512 -317 97094 -45659 -35093 -316749
344693 344694252 732 -659 97241 -45465 -35297 -316814
344697 344698008 1391 -488 97680 -45135 -36190 -316728
344700 344701776 585 -854 97705 -45184 -36217 -316912
344706 344706288 341 -952 96704 -45464 -35876 -316857
344709 344710040 830 -415 97363 -45188 -36073 -316846
344713 344713800 683 -488 97680 -44883 -36222 -317011
344717 344717552 122 -854 97753 -45020 -35607 -317076
344720 344721316 903 -1123 98193 -45438 -35957 -317077
344724 344725108 1245 -488 96069 -45143 -36744 -317059
344728 344728884 659 -634 98291 -44986 -36753 -317101
344731 344732644 292 -854 97241 -45045 -36392 -317069
344735 344736412 268 -1098 97827 -45457 -35754 -317058
344740 344740944 805 -903 96948 -45689 -36000 -317034
344743 344744724 463 -463 98364 -45347 -35892 -317035
344748 344748480 537 -1171 97143 -45824 -35756 -316971
344752 344752260 561 -219 98266 -45107 -35778 -316903
344755 344756016 -73 -463 96411 -44847 -35020 -316989
344759 344759772 976 -1684 97045 -45936 -35511 -316848
344763 344763560 1025 -561 96508 -45726 -36065 -316922
344766 344767332 585 -1025 97973 -45976 -36122 -316782
344770 344771112 830 -1000 97680 -46221 -36292 -316758
344774 344774904 0 -732 96972 -46248 -35631 -316667
344778 344779252 1049 -708 96752 -46283 -36129 -316735
344782 344783032 903 -341 97680 -45746 -36540 -316722
344785 344786796 390 -1049 97582 -46150 -36175 -316887
344790 344790572 97 -1342 96606 -46911 -35623 -316713
344794 344794340 830 -488 96997 -46681 -35853 -316786
344797 344798088 512 -732 97802 -46715 -35739 -316690
344801 344801844 805 -1171 97949 -47177 -35976 -316788
344805 344805632 805 -708 96826 -47064 -36207 -316756
344808 344809400 878 -585 97436 -46742 -36364 -316775
344813 344813912 1293 -1342 97338 -47294 -37139 -316892
344817 344817704 805 -1025 97045 -47614 -37372 -316920
344820 344821488 537 -634 97705 -47509 -37162 -316786
344824 344825232 97 -1123 97387 -47837 -36513 -316860
344828 344829008 732 -732 96582 -47818 -36591 -316847
344832 344832772 1147 -634 97582 -47586 -37068 -316863
344836 344836552 244 -1147 97534 -47993 -36553 -316937
344840 344840324 537 -1196 97680 -48456 -36517 -316942
344843 344844100 537 -878 96850 -48606 -36407 -317028
344861 344861832 756 -463 96874 -48190 -36993 -317083
344864 344865580 537 -805 97656 -48275 -36832 -316968
344868 344869340 683 -1171 96728 -48739 -36903 -316964
344872 344873124 195 -756 97338 -48681 -36440 -316922
344876 344876888 1123 -805 97119 -48588 -37104 -316831
344880 344880684 219 -634 96435 -48498 -36626 -316880
344884 344884448 415 -708 97265 -48363 -36385 -316785
344887 344888216 439 -317 97314 -47688 -36088 -316962
344891 344891960 537 -537 96630 -47391 -35928 -317030
344895 344895708 976 -1171 97119 -47795 -36449 -317003
344902 344903208 1098 -415 97802 -47497 -37025 -317224
344906 344906984 659 -170 97729 -46793 -37041 -317280
344909 344910740 585 -732 98681 -46692 -36984 -317341
344913 344914500 830 -634 97900 -46497 -37326 -317354
344918 344918276 878 -781 97656 -46653 -37620 -317306
344921 344922044 634 -1171 98388 -47062 -37711 -317344
344925 344925836 756 -732 97265 -47069 -37821 -317405
344929 344929592 390 -415 96337 -46668 -37491 -317355
344932 344933332 244 -1342 97119 -47404 -37110 -317271
344938 344938772 317 -366 97485 -47023 -36528 -317447
344941 344942500 366 -1440 97680 -47822 -36218 -317545
344945 344946264 1025 -659 97607 -47671 -36544 -317607
344949 344950044 781 -805 97045 -47693 -36761 -317557
344952 344953812 97 -854 97192 -47730 -36113 -317570
344956 344957580 1098 -927 97558 -48054 -36595 -317403
344961 344961356 488 -976 96630 -48257 -36427 -317317
344964 344965116 708 -292 97778 -47659 -36611 -317281
344968 344968876 927 -512 97900 -47313 -36901 -317251
344972 344972636 634 -610 98730 -47149 -36934 -317251
344976 344977148 1074 -439 96655 -46758 -37519 -317191
344980 344980924 512 -659 98095 -46621 -37388 -317292
344984 344984680 756 -512 97070 -46277 -37486 -317311
344987 344988440 415 -1074 97509 -46652 -37209 -317251
344991 344992232 -170 -561 96874 -46375 -36287 -317265
344995 344996000 1049 -1025 97753 -46678 -36830 -317343
344998 344999800 561 -708 97509 -46638 -36744 -317344
345003 345003564 537 -1123 97534 -47042 -36793 -317528
345007 345007336 927 -634 97216 -46909 -37198 -317625
345011 345011840 1440 24 96777 -45862 -38141 -317633
345015 345015600 903 -1025 97998 -46064 -38512 -317634
345018 345019376 952 -1220 97802 -46556 -38920 -317695
345022 345023164 878 -878 96801 -46709 -39125 -317678
345026 345026940 170 -756 96191 -46696 -38522 -317747
345030 345030708 927 -366 97509 -46207 -38794 -317651
345033 345034456 878 -805 98315 -46224 -39189 -317615
345037 345038240 1147 -512 97216 -45981 -39764 -317648
345041 345042020 341 -805 97729 -46039 -39435 -317552
345044 345045784 97 -1074 96997 -46486 -38735 -317301
345050 345050312 1318 -561 97973 -46257 -39571 -317089
345053 345054080 463 -1147 96777 -46662 -39188 -317162
345057 345057860 878 -1098 98022 -46961 -39488 -317267
345061 345061652 1464 -708 97582 -46841 -40506 -317281
345064 345065416 634 -415 97265 -46287 -40560 -317306
345068 345069172 1098 -708 97338 -46119 -40895 -317380
345072 345072948 708 -854 97656 -46187 -40888 -317230
345075 345076720 1293 -756 97363 -46263 -41622 -317276
345079 345080504 976 -170 97265 -45643 -41877 -317325
345084 345085012 561 -878 97607 -45823 -41738 -317528
345088 345088784 878 -878 97021 -45835 -41877 -317666
345092 345092568 878 -341 97460 -45231 -42093 -317648
345096 345096328 268 -781 98608 -45254 -41556 -317708
345099 345100092 805 -488 96972 -45011 -41656 -317764
345103 345103848 97 -952 97265 -45099 -40810 -317741
345107 345107604 244 -1049 97607 -45368 -40238 -317765
345110 345111376 268 -1147 97534 -45763 -39739 -317717
345114 345115156 830 -708 97656 -45738 -39916 -317827
345118 345119668 390 -439 96289 -45456 -39651 -317803
345122 345123412 683 -1123 97290 -45877 -39619 -317883
345126 345127200 537 -878 97827 -45883 -39475 -317856
345129 345130956 610 -1074 97045 -46288 -39328 -317842
345134 345134740 512 -170 97265 -45499 -39178 -317904
345138 345138492 488 -1000 97705 -45783 -39005 -317849
345141 345142260 292 -927 97509 -46001 -38500 -317771
345145 345146028 683 -878 97705 -46065 -38529 -317741
345149 345149804 805 -585 97290 -45934 -38656 -317728
345153 345153564 805 -732 97509 -45837 -38778 -317678
345171 345172344 463 -708 98608 -46149 -38242 -317449
345176 345176096 415 -366 97631 -45586 -37966 -317527
345179 345179840 -48 -976 97485 -45764 -37177 -317534
345183 345183616 512 -1147 97509 -46095 -36988 -317585
345187 345187384 292 -976 97607 -46285 -36680 -317567
345190 345191152 195 -537 97460 -46046 -35987 -317580
345194 345194916 708 -756 97290 -46058 -35987 -317668
345198 345198672 756 -805 96972 -46126 -36155 -317632
345201 345202448 854 -1074 97143 -46539 -36311 -317669
345209 345209956 1074 -561 97387 -46470 -36895 -317563
345212 345213736 976 -1318 97485 -47152 -37324 -317518
345217 345217524 585 -1269 97656 -47691 -37226 -317652
345221 345221304 1538 -585 98120 -47392 -38343 -317748
345224 345225080 903 -463 96459 -46967 -38736 -317725
345228 345228840 659 73 96459 -45960 -38783 -317554
345232 345232596 1025 -976 98364 -46121 -39280 -317505
345235 345236376 634 -732 97412 -46074 -39346 -317463
345239 345240136 732 -219 97045 -45336 -39450 -317292
345243 345243892 268 -1147 97363 -45759 -38944 -317252
345248 345249532 292 -878 96752 -45887 -38372 -317152
345252 345253300 488 -878 97949 -46044 -38147 -317180
345256 345257056 366 -1049 97192 -46291 -37813 -317138
345260 345260832 73 -610 97045 -46117 -37008 -317035
345264 345264592 781 -1269 97119 -46649 -37210 -317081
345268 345268376 830 -1049 96850 -46923 -37459 -317283
345271 345272160 439 -781 97582 -46832 -37115 -317327
345275 345275932 415 -878 97631 -47072 -36817 -317332
345279 345279692 97 -585 98168 -46888 -36165 -317474
345283 345284184 439 -488 96997 -46454 -35980 -317666
345287 345287932 634 -903 97485 -46611 -36049 -317616
345290 345291696 195 -781 97631 -46693 -35578 -317702
345294 345295468 415 -537 96630 -46439 -35337 -317623
345298 345299236 -122 -1049 96655 -46846 -34542 -317583
345302 345303024 927 -634 97021 -46781 -34898 -317408
345306 345306796 341 -463 97900 -46432 -34471 -317250
345310 345310536 122 -415 97143 -46066 -34013 -317232
345313 345314288 537 -805 97167 -46033 -33843 -317214
345317 345318064 317 -463 97338 -45708 -33566 -317142
345322 345322560 561 -1098 97753 -46191 -33574 -317216
345325 345326348 1000 -561 97119 -45967 -34021 -317107
345329 345330120 1074 -585 96923 -45738 -34662 -317121
345333 345333904 903 -195 96972 -44997 -35011 -317062
345336 345337668 1098 -634 97949 -44997 -35635 -316965
345340 345341448 341 -1098 97705 -45454 -35307 -316869
345345 345345216 1025 -634 97387 -45342 -35819 -316769
345348 345348992 244 -952 96826 -45671 -35322 -316868
345352 345352748 903 -488 97363 -45358 -35694 -316880
345356 345357252 317 -1220 96118 -45956 -35355 -316893
345360 345361024 390 -561 98120 -45724 -34987 -316937
345364 345364776 659 -927 98681 -45929 -35113 -317056
345367 345368540 683 -903 97875 -46303 -35154 -317094
345371 345372308 73 -1000 96508 -46519 -34559 -317125
345375 345376084 830 -805 96533 -46573 -34770 -317144
345379 345379864 1269 -1123 96874 -47097 -35502 -317176
345382 345383660 683 -1367 97387 -47765 -35581 -317024
345387 345387440 512 -732 97778 -47700 -35396 -317025
345391 345391944 708 -1147 97753 -48069 -35461 -317087
345395 345395720 659 -1220 97851 -48462 -35516 -317078
345399 345399516 390 -976 97143 -48789 -35116 -317138
345402 345403268 488 -1074 96533 -49049 -34883 -317059
345406 345407048 561 -1000 97631 -49382 -34877 -317036
345410 345410828 781 -1123 97021 -49713 -35154 -317064
345413 345414608 390 -805 96264 -49781 -34847 -317028
345417 345418376 512 -1318 98071 -50381 -34752 -316937
345421 345422156 659 -488 97265 -49914 -34795 -317015
345424 345425904 366 -610 97412 -49667 -34581 -317020
345430 345430412 708 -1000 97509 -49770 -34665 -316953
345434 345434196 927 -878 96997 -49895 -35048 -316994
345437 345437972 683 -708 97509 -49802 -35063 -316861
345441 345441732 390 -659 97436 -49533 -34810 -317058
345445 345445488 292 -805 97753 -49587 -34491 -317114
345448 345449252 585 -903 97338 -49756 -34380 -317102
345452 345453024 830 -1220 96923 -50174 -34743 -317144
345456 345456808 292 -585 96557 -49952 -34340 -317337
345459 345460560 1049 -97 97827 -49016 -34855 -317307
345479 345479324 366 -659 98071 -48899 -34259 -318412
345482 345483068 585 -878 98413 -48994 -34259 -318333
345486 345486844 610 -1000 97485 -49188 -34338 -318370
345490 345490628 561 -585 97875 -48958 -34297 -318307
345493 345494384 585 -1049 97216 -49248 -34311 -318191
345497 345498176 -97 -659 97534 -48896 -33423 -318137
345501 345501944 512 -805 97631 -48919 -33305 -318064
345504 345505700 292 -244 97875 -48204 -32853 -318108
345508 345509452 976 -585 97973 -47963 -33323 -318115
345512 345513216 1611 -659 96923 -47779 -34504 -317944
345520 345520712 903 -976 96997 -48064 -34971 -317934
345524 345524492 122 -830 97436 -48174 -34453 -317966
345527 345528260 561 -732 98266 -48186 -34451 -317955
345531 345532016 1293 -463 97778 -47864 -35198 -318053
345535 345535780 341 -634 97998 -47627 -34900 -318145
345538 345539528 512 -683 97094 -47513 -34804 -318250
345542 345543284 659 -952 97582 -47641 -34986 -318244
345546 345547060 634 -390 96435 -47176 -34940 -318272
345549 345550808 756 -1220 96704 -47734 -35135 -318340
345556 345557064 -73 -927 96923 -48068 -34256 -318330
345560 345560840 732 -1074 97558 -48298 -34404 -318264
345564 345564612 756 -1025 98217 -48633 -34467 -318283
345568 345568388 415 -903 97119 -48642 -34301 -318334
345571 345572144 610 -659 97119 -48545 -34236 -318292
345575 345575908 366 -683 97363 -48353 -33845 -318210
345579 345579656 292 -805 97338 -48353 -33601 -318100
345582 345583420 634 -634 97827 -48108 -33645 -318101
345586 345587188 292 -756 97778 -48119 -33219 -318028
345590 345591688 341 -952 96777 -48411 -33010 -318047
345594 345595448 292 -146 97509 -47497 -32727 -318152
345598 345599200 317 -1196 97363 -47975 -32490 -317976
345602 345602976 292 -732 97436 -47926 -32278 -317927
345606 345606736 756 -1098 97485 -48333 -32572 -317800
345610 345610520 146 -1000 98779 -48555 -32021 -317965
345613 345614300 -24 -805 97558 -48485 -31331 -318070
345617 345618064 927 -952 97485 -48708 -31810 -318070
345621 345621840 1098 -976 96557 -48862 -32408 -318007
345625 345625628 512 -1269 97949 -49479 -32482 -317980
345629 345630156 512 -903 97387 -49566 -32265 -317950
345633 345633920 1074 -781 98071 -49578 -32949 -317987
345636 345637700 854 -683 97290 -49376 -33246 -317951
345640 345641468 268 -878 97509 -49548 -32773 -317964
345645 345645228 927 -781 96874 -49492 -33307 -317960
345648 345649004 292 -1098 97363 -49851 -33001 -317930
345652 345652788 146 -683 97436 -49647 -32450 -317992
345656 345656556 268 -390 97558 -49083 -32163 -318084
345659 345660300 805 -1196 97436 -49594 -32548 -318054
345664 345664840 830 -512 96972 -49114 -32773 -317854
345667 345668588 1049 -756 96752 -48885 -33291 -317854
345671 345672376 561 -805 97070 -48867 -33261 -317898
345675 345676148 781 -1025 97705 -49165 -33505 -317916
345679 345679936 1000 -1171 97412 -49543 -33898 -317862
345682 345683736 683 -976 97436 -49740 -34020 -317863
345687 345687516 1098 -1318 97387 -50311 -34693 -317863
345691 345691316 415 -1293 97827 -50921 -34420 -317823
345694 345695092 268 -1098 97509 -51339 -34026 -318000
345698 345698864 1538 -878 96997 -51495 -35225 -318068
345702 345703404 415 -1196 97900 -51927 -35003 -317910
345706 345707200 415 -830 97216 -51827 -34807 -317923
345710 345710968 903 -927 97705 -51934 -35128 -317914
345714 345714736 634 -561 96704 -51391 -35233 -317814
345717 345718500 634 -659 97802 -51275 -35239 -317955
345721 345722260 463 -1220 97631 -51670 -35041 -317855
345725 345726036 756 -878 97143 -51711 -35277 -317917
345729 345729808 366 -537 97973 -51390 -34955 -317997
345733 345733556 1171 -732 98168 -51160 -35653 -318029
345737 345738080 415 -878 97460 -51310 -35341 -318091
345741 345741852 244 -1171 97460 -51600 -34905 -318115
345745 345745628 439 -1147 96972 -51992 -34746 -318069
345748 345749404 634 -756 97021 -51896 -34774 -318052
345752 345753168 463 -634 96606 -51661 -34703 -318077
345756 345756932 366 -1196 97094 -52121 -34421 -318045
345759 345760696 1074 -805 97778 -52019 -35078 -318156
345763 345764488 219 -1147 97216 -52315 -34549 -318059
345767 345768268 756 -146 97973 -51427 -34714 -317945
345786 345786456 390 -732 97412 -51598 -34669 -317818
345789 345790212 610 -683 97485 -51294 -34690 -317733
345793 345793980 219 -805 97412 -51235 -34248 -317789
345797 345797752 927 -708 96997 -51111 -34567 -317785
345800 345801520 561 -708 97680 -50939 -34603 -317737
345804 345805280 634 -537 97290 -50671 -34589 -317774
345808 345809044 170 -732 97363 -50498 -34105 -317774
345811 345812808 1025 -1367 98120 -51109 -34609 -317737
345816 345816604 512 -390 96191 -50545 -34561 -317729
345820 345820360 463 -1293 97363 -51049 -34494 -317711
345827 345827852 634 -488 97265 -50638 -34609 -317851
345831 345831608 244 -268 97778 -49829 -34106 -317833
345834 345835360 952 -634 97582 -49544 -34581 -317889
345838 345839128 341 -830 97119 -49502 -34277 -317894
345842 345842888 390 -1220 96948 -49902 -33921 -318004
345845 345846648 463 -976 97070 -50011 -33745 -317938
345849 345850408 610 -732 97290 -49857 -33845 -318060
345853 345854164 854 -830 97753 -49936 -34167 -318037
345857 345857944 634 -610 97338 -49712 -34282 -318037
345864 345864372 341 -708 97314 -49661 -33976 -318103
345867 345868120 512 -878 97851 -49663 -33792 -317993
345871 345871880 463 -756 97070 -49574 -33594 -318058
345875 345875636 903 -756 96777 -49489 -33882 -317972
345878 345879408 585 -1025 97558 -49681 -33955 -317832
345882 345883200 390 -1123 97265 -50030 -33787 -317894
345886 345886988 903 -683 96826 -49961 -34213 -317803
345889 345890740 1025 -952 96655 -50098 -34670 -317815
345893 345894532 341 -1318 97485 -50689 -34429 -317834
345897 345898304 1367 -561 98046 -50328 -35269 -317713
345902 345902828 537 -585 97338 -50001 -35229 -317695
345906 345906588 512 -1049 97192 -50244 -35144 -317737
345910 345910376 903 -830 97119 -50292 -35612 -317729
345913 345914160 1000 -878 97216 -50293 -36167 -317839
345917 345917952 195 -1220 97778 -50796 -35661 -317862
345921 345921736 732 -1123 97875 -51033 -35740 -317845
345924 345925512 415 -1000 98046 -51136 -35555 -317967
345928 345929288 976 -1025 97949 -51380 -35911 -318017
345932 345933072 756 -366 96899 -50630 -36018 -318017
345936 345937564 756 -732 97167 -50483 -36134 -318057
345940 345941332 781 -1123 97021 -50910 -36355 -318063
345945 345945128 292 -585 96997 -50639 -35990 -317986
345948 345948884 805 -244 97265 -50005 -36180 -317987
345952 345952656 1513 -805 97973 -49984 -37157 -317983
345956 345956440 634 -878 96801 -50067 -37199 -317997
345959 345960228 1074 -805 97753 -50059 -37771 -317857
345963 345964020 756 -1489 97290 -50751 -37927 -317990
345967 345967788 73 -830 97973 -50788 -37157 -317872
345971 345972304 732 -952 97582 -50975 -37345 -318003
345975 345976072 97 -1025 98022 -51147 -36737 -317870
345978 345979840 805 -976 96728 -51348 -37001 -317926
345982 345983608 781 -805 96777 -51277 -37018 -317904
345987 345987392 805 -1049 97363 -51511 -37228 -317909
345991 345991184 610 -1025 96728 -51719 -37226 -317809
345994 345994964 1123 -952 97680 -51803 -37694 -317907
345998 345998752 830 -756 97290 -51566 -37933 -317940
346002 346002520 390 -439 97314 -51103 -37637 -317981
346005 346006276 -73 -415 97387 -50684 -36986 -318000
346010 346010792 415 -830 97753 -50591 -36730 -317995
346013 346014572 268 -390 97778 -49985 -36349 -318136
346017 346018328 708 -830 97241 -49943 -36409 -318128
346021 346022100 415 -952 96020 -50104 -36142 -318004
346024 346025856 610 -756 96313 -50079 -36269 -318082
346029 346029640 805 -1123 98022 -50344 -36476 -317972
346033 346033432 537 -1123 96240 -50676 -36420 -317950
346036 346037216 683 -781 97045 -50742 -36453 -318048
346040 346040988 390 -878 98486 -50985 -36074 -318067
346045 346045500 -170 -1196 99145 -51403 -35110 -318068
346048 346049296 830 -244 98632 -50373 -35387 -317855
346052 346053060 585 24 95922 -49244 -35511 -317760
346056 346056804 2270 -463 94555 -48917 -37577 -317769
346059 346060576 1123 -1904 93505 -50518 -37755 -317666
346063 346064376 -1440 -2172 97705 -52353 -35049 -317694
346067 346068172 -878 -1147 100268 -52703 -33364 -317658
346071 346071984 1586 415 99145 -50866 -34809 -317610
346075 346075760 1513 292 95898 -49291 -36074 -317586
346079 346079528 1196 341 93286 -47900 -36779 -317569
346096 346097636 1293 -756 96557 -48306 -38049 -317572
346100 346101424 463 -952 94946 -48568 -37743 -317536
346104 346105176 48 -1367 95703 -49307 -36861 -317573
346108 346108952 561 -903 97753 -49372 -36784 -317628
346112 346112720 927 -659 98559 -49302 -37213 -317522
346116 346116496 439 -805 98364 -49292 -37094 -317505
346120 346120264 537 -219 98388 -48640 -37043 -317551
346123 346124024 122 -610 97875 -48270 -36269 -317619
346127 346127780 292 -634 95703 -48043 -35806 -317537
346134 346135256 1757 -878 96020 -48417 -37245 -317645
346138 346139044 781 -1318 98364 -49030 -37358 -317563
346142 346142832 634 -1489 99414 -49763 -37291 -317481
346145 346146620 -561 -1025 98974 -49825 -36078 -317445
346149 346150404 292 -830 96923 -49896 -35812 -317382
346153 346154168 2294 -1269 95361 -50323 -37796 -317480
346157 346157956 1391 -781 97363 -50316 -38669 -317530
346161 346161744 170 -24 97534 -49430 -37907 -317536
346165 346165508 -195 -756 98510 -49372 -36974 -317464
346170 346170944 1025 -1269 98266 -49930 -37578 -317437
346174 346174744 2026 -366 97460 -49341 -39273 -317447
346177 346178500 1123 -854 95776 -49450 -39822 -317496
346181 346182288 -634 -805 95898 -49408 -38168 -317460
346185 346186064 73 -805 97070 -49390 -37372 -317530
346188 346189820 1342 -1513 99194 -50187 -38147 -317494
346192 346193620 1708 -1831 98803 -51362 -39446 -317647
346196 346197424 976 -903 99243 -51302 -40027 -317586
346201 346201204 268 610 97021 -49516 -39527 -317546
346204 346204964 610 -366 95288 -48926 -39414 -317534
346209 346209472 1782 -634 95581 -48746 -40603 -317596
346212 346213248 1098 -1245 97241 -49407 -41095 -317609
346216 346217048 -73 -781 99194 -49335 -40203 -317500
346220 346220824 610 -561 98291 -48906 -40175 -317537
346223 346224576 512 -634 97753 -48710 -40041 -317489
346227 346228336 1025 -1074 97290 -48901 -40511 -317526
346231 346232128 0 -878 96020 -49013 -39667 -317508
346234 346235740 805 -878 96044 -49179 -39772 -317509
346238 346239524 488 -854 98876 -49283 -39551 -317443
346243 346244032 1171 -976 98925 -49400 -40120 -317217
346247 346247824 854 -903 96923 -49332 -40468 -317255
346251 346251592 805 -1147 96508 -49763 -40591 -317287
346255 346255380 366 -537 95800 -49344 -40251 -317366
346258 346259116 0 -390 96362 -48985 -39293 -317293
346262 346262720 1147 -292 97656 -48440 -39865 -317257
346265 346266496 1391 -1171 98559 -48842 -40490 -317264
346269 346270292 878 -1586 98583 -49735 -40663 -317271
346273 346274084 341 -1171 97314 -50067 -40416 -317422
346276 346277852 0 -439 96704 -49654 -39664 -317575
346281 346282208 781 219 94970 -48406 -39914 -317569
346285 346285968 756 -756 96069 -48432 -39884 -317545
346289 346289740 585 -1318 97998 -48959 -39655 -317576
346293 346293516 122 -1367 99877 -49540 -38981 -317622
346296 346297292 732 -1123 98266 -49933 -39059 -317690
346300 346301084 781 -292 97705 -49303 -39292 -317538
346304 346304848 805 -488 95654 -48863 -39460 -317566
346307 346308616 537 -610 95776 -48738 -39293 -317494
346311 346312372 366 -952 96972 -49040 -38853 -317549
346316 346316872 -97 -1538 97973 -49878 -37881 -317538
346319 346320664 512 -1147 98291 -50411 -37760 -317612
346323 346324452 195 -463 98168 -49880 -37337 -317625
346328 346328216 1000 -1123 97045 -50241 -37792 -317598
346331 346332016 585 -390 95019 -49805 -37746 -317696
346335 346335780 927 -366 96557 -49267 -38013 -317683
346339 346339536 634 -1025 97143 -49511 -37887 -317711
346342 346343312 390 -1123 98950 -49858 -37489 -317687
346346 346347092 585 -1293 98730 -50353 -37518 -317676
346351 346351632 512 -683 96728 -50205 -37497 -317963
346354 346355392 976 -195 96972 -49428 -37743 -317884
346358 346359164 1171 -244 96362 -48695 -38361 -317894
346362 346362940 561 -830 96289 -48795 -38183 -317963
346365 346366716 878 -1318 96557 -49431 -38496 -318140
346370 346370496 488 -927 99121 -49525 -38253 -318131
346374 346374256 659 -952 97192 -49676 -38280 -318186
346377 346378028 292 -463 96728 -49102 -37841 -318157
346381 346381776 830 -683 95874 -48957 -38047 -318221
346385 346385536 732 -830 96655 -49102 -38156 -318167
346403 346404712 878 -1342 95507 -49086 -37921 -317503
346407 346408492 659 -927 96508 -49245 -37867 -317527
346412 346412268 634 -683 97631 -48992 -37807 -317514
346415 346416020 903 -952 97973 -49235 -38092 -317606
346419 346419788 268 -854 98461 -49235 -37700 -317735
346423 346423552 903 -781 97851 -49031 -37934 -317754
346426 346427320 561 -512 96484 -48685 -37899 -317736
346430 346431080 610 -659 96582 -48579 -37874 -317835
346434 346434844 366 -268 96850 -47994 -37466 -317725
346441 346442300 219 -756 98999 -48045 -37025 -317836
346445 346446060 537 -415 97949 -47621 -36924 -317832
346448 346449808 415 -1074 97216 -47954 -36791 -317815
346452 346453588 634 -708 97119 -47646 -36890 -317846
346457 346457348 1391 -1367 95922 -48376 -37776 -317842
346460 346461128 1196 -1269 96240 -49006 -38442 -317843
346464 346464928 708 -830 97778 -48940 -38523 -317929
346468 346468704 537 -317 97265 -48381 -38401 -318030
346471 346472440 292 -1147 98461 -48625 -38030 -317925
346475 346476228 1147 -1708 96630 -49680 -38741 -317969
346481 346481900 610 -1318 96728 -50191 -38483 -318115
346484 346485672 585 -634 97314 -50014 -38322 -317938
346488 346489436 1147 -634 97680 -49712 -38863 -317988
346492 346493212 24 -1025 97680 -49949 -38107 -317933
346496 346496980 878 -1098 97582 -50175 -38471 -317721
346500 346500768 830 -1220 97143 -50607 -38773 -317691
346504 346504568 805 -878 98144 -50712 -38976 -317760
346508 346508344 122 -219 97851 -49930 -38373 -317728
346511 346512116 341 -952 96411 -50184 -38086 -317668
346516 346516628 610 -512 98266 -49810 -38069 -317675
346519 346520392 952 -1074 98120 -50040 -38363 -317645
346523 346524176 927 -1318 97827 -50504 -38657 -317609
346527 346527956 537 -659 96533 -50331 -38510 -317577
346530 346531720 219 -1367 96704 -51018 -37932 -317590
346534 346535496 292 -781 96337 -50971 -37435 -317738
346539 346539264 537 -537 96411 -50639 -37273 -317604
346542 346543020 585 -927 98315 -50692 -37166 -317800
346546 346546780 927 -439 97070 -50216 -37610 -317862
346550 346550544 488 -830 98339 -50216 -37447 -317826
346554 346555056 903 -1049 96777 -50554 -37779 -317971
346558 346558840 854 -585 97314 -50342 -38094 -318036
346562 346562604 927 -976 98071 -50442 -38324 -318087
346565 346566384 1147 -683 96972 -50254 -39018 -318106
346569 346570168 610 -366 98168 -49736 -38862 -318079
346573 346573920 1074 -537 97875 -49327 -39444 -318144
346576 346577692 1416 -903 97729 -49383 -40330 -318254
346580 346581480 1171 -244 97680 -48642 -40775 -318401
346585 346585252 585 -512 97998 -48265 -40723 -318306
346589 346589760 -48 -952 98339 -48539 -39833 -318200
346593 346593540 1416 -1220 97509 -49044 -40743 -318155
346596 346597328 1049 -585 97143 -48786 -41115 -318204
346600 346601108 927 -781 97387 -48845 -41459 -318260
346604 346604884 -170 -1171 97241 -49411 -40350 -318265
346608 346608668 1171 -634 97265 -49154 -40925 -318183
346611 346612448 1098 -1123 97949 -49618 -41425 -318196
346615 346616252 122 -1049 97167 -49910 -40630 -318201
346619 346620032 854 -927 96606 -49978 -40883 -318179
346624 346624564 97 -390 97705 -49573 -40309 -318006
346628 346628316 634 -415 96777 -49061 -40356 -318075
346631 346632076 927 -561 97167 -48834 -40651 -317966
346635 346635836 292 -878 96948 -48736 -40086 -318009
346639 346639596 -122 -1147 97241 -49052 -39214 -318032
346642 346643380 268 -976 96777 -49349 -38763 -318082
346646 346647148 415 -708 97338 -49233 -38431 -318211
346650 346650900 561 -317 96118 -48610 -38271 -318221
346653 346654652 585 -537 96582 -48313 -38114 -318178
346657 346658408 341 -976 97460 -48634 -37804 -318222
346662 346662920 415 -634 97582 -48492 -37503 -318113
346665 346666672 48 -415 97509 -48079 -36769 -318182
346670 346670436 1049 -1171 97167 -48474 -37237 -318142
346674 346674232 683 -1049 97705 -48737 -37243 -318128
346677 346678016 439 -1245 97656 -49177 -37142 -317946
346681 346681788 976 -415 97680 -48570 -37583 -317960
346685 346685544 1513 -390 96997 -48155 -38603 -317782
346688 346689312 805 -976 97070 -48568 -38749 -317783
346692 346693092 390 -1904 96313 -49998 -38418 -317916
346712 346712240 -24 -1293 96826 -50907 -37436 -317485
346715 346716016 317 -634 98999 -50613 -36998 -317479
346719 346719780 1318 -927 97900 -50736 -37863 -317535
346723 346723564 854 170 96069 -49519 -38096 -317503
346726 346727320 708 -195 95581 -48896 -38096 -317534
346730 346731076 976 -1464 97753 -49679 -38523 -317639
346734 346734860 927 -1416 98852 -50251 -38857 -317754
346737 346738632 634 -512 98120 -49781 -38872 -317578
346741 346742392 1000 -561 96704 -49578 -39260 -317609
346748 346749852 366 -1342 97607 -49915 -38802 -317354
346753 346753620 610 -1049 98486 -50188 -38895 -317434
346757 346757400 1245 -1489 96777 -50971 -39629 -317480
346760 346761184 927 -781 95703 -50901 -39860 -317456
346764 346764968 927 -805 96386 -51028 -40061 -317421
346768 346768740 659 -854 97973 -50967 -40051 -317503
346772 346772520 341 -878 97778 -50961 -39653 -317431
346775 346776288 561 -976 97167 -51102 -39477 -317389
346779 346780056 -146 -1049 96655 -51429 -38390 -317302
346783 346783844 732 -976 96313 -51581 -38514 -317271
346789 346790084 73 -390 98901 -50978 -37958 -317299
346792 346793836 -73 -634 97875 -50748 -37080 -317041
346797 346797608 708 -927 97241 -50942 -37241 -317017
346801 346801376 463 -1000 97070 -51088 -37028 -317072
346804 346805140 683 -732 97753 -50921 -36900 -317085
346808 346808904 561 -292 97705 -50289 -36865 -317110
346812 346812664 -195 -1660 96777 -51273 -35796 -317125
346815 346816444 756 -585 97729 -51002 -36024 -317180
346819 346820204 830 -244 97436 -50271 -36402 -317193
346824 346824732 1342 -1123 97851 -50510 -37225 -317334
346827 346828524 244 -537 97241 -50213 -36933 -317384
346831 346832276 268 -1049 96533 -50487 -36466 -317444
346835 346836064 830 -830 96801 -50486 -36692 -317445
346839 346839852 1147 -659 98144 -50188 -37289 -317506
346843 346843640 683 -854 97314 -50142 -37323 -317548
346847 346847412 24 -561 96752 -49779 -36639 -317535
346850 346851160 390 -1074 96923 -50085 -36323 -317694
346854 346854944 1074 -878 98022 -50076 -36935 -317580
346858 346858728 1000 -659 97705 -49898 -37368 -317604
346862 346863264 341 -634 96948 -49652 -36961 -317513
346866 346867016 537 -708 97607 -49550 -36854 -317500
346869 346870764 1367 -1025 96362 -49744 -37745 -317454
346873 346874572 976 -903 96704 -49821 -38162 -317571
346877 346878344 317 -708 96972 -49777 -37675 -317492
346882 346882096 48 -561 97753 -49427 -36972 -317447
346885 346885860 244 -732 97387 -49440 -36433 -317515
346889 346889608 73 -1025 97387 -49587 -35694 -317442
346893 346893380 708 -830 97851 -49564 -35735 -317466
346897 346897908 1025 -927 97631 -49813 -36238 -317515
346901 346901688 -537 -976 96533 -49990 -34968 -317621
346904 346905460 48 0 96093 -49094 -34246 -317707
346908 346909064 781 -512 96557 -48803 -34481 -317648
346912 346912824 1342 -512 98046 -48427 -35372 -317672
346915 346916608 390 -1000 97363 -48591 -35055 -317685
346919 346920388 219 -1025 97827 -48879 -34668 -317740
346924 346924172 170 -708 97094 -48766 -34111 -317745
346927 346927932 1098 -903 96704 -48940 -34829 -317795
346931 346931716 1049 -585 97558 -48718 -35273 -317878
346935 346936236 732 -366 96826 -48161 -35372 -317756
346939 346939992 -73 -1025 97949 -48471 -34545 -317665
346943 346943772 488 -488 97119 -48088 -34464 -317734
346946 346947508 952 -952 97021 -48252 -34962 -317790
346950 346951284 -439 -903 97119 -48331 -33663 -317736
346954 346955056 146 -1049 96557 -48647 -33184 -317636
346957 346958832 585 -732 96728 -48598 -33235 -317533
346961 346962600 878 -561 97290 -48277 -33543 -317619
346966 346966364 659 -683 97192 -48215 -33592 -317668
346970 346970868 292 -1049 98217 -48471 -33307 -317651
346974 346974652 683 -1293 97314 -49098 -33434 -317619
346978 346978428 0 -952 97216 -49361 -32723 -317583
346981 346982040 634 -805 96899 -49418 -32900 -317535
346985 346985816 781 -903 97070 -49519 -33170 -317499
346989 346989588 244 -1147 98315 -49926 -32785 -317508
346992 346993376 1098 -1293 96533 -50465 -33448 -317283
346996 346997180 1123 -976 97363 -50593 -33999 -317330
347000 347000964 732 -537 96752 -50254 -34158 -317252
347210 347211160 0 -512 97753 -61875 -35195 -315686
347213 347214764 512 -659 98046 -61386 -35021 -315663
347217 347218524 732 -805 97216 -61098 -35061 -315761
347222 347222284 878 -537 97949 -60566 -35505 -315750
347225 347226044 878 -1269 97485 -60986 -35908 -315628
347229 347229828 659 -1416 97485 -61408 -35944 -315592
347233 347233612 878 -1025 97094 -61486 -36188 -315552
347237 347237400 805 -708 96582 -61026 -36350 -315470
347240 347241168 610 -1074 96948 -61166 -36461 -315379
347244 347244956 1000 -1025 97460 -61203 -36853 -315375
347251 347252476 512 -1098 96923 -61449 -36664 -315162
347255 347256256 732 -1049 97216 -61467 -36854 -315149
347259 347260040 512 -1416 97851 -61938 -36599 -315214
347262 347263808 146 -146 97656 -60970 -36050 -315230
347267 347267576 512 -756 97045 -60606 -35923 -315198
347271 347271340 561 -1196 96313 -60903 -35807 -315107
347274 347275120 659 -610 97705 -60391 -35909 -315163
347278 347278892 634 -1220 97119 -60703 -35865 -315066
347282 347282672 903 -463 97534 -60075 -36251 -315154
347289 347289896 708 -390 96899 -59422 -36494 -315016
347292 347293644 927 -1000 98193 -59380 -36772 -315017
347296 347297436 439 -1367 97631 -59882 -36591 -314895
347300 347301208 390 -976 97558 -59824 -36270 -314941
347304 347304968 1049 122 97753 -58516 -36814 -314936
347308 347308748 585 -976 97387 -58503 -36519 -314888
347312 347312524 439 -1586 96411 -59274 -36295 -314975
347316 347316308 268 -1049 97582 -59282 -35981 -314944
347319 347320092 1220 -463 97509 -58625 -36782 -314865
347323 347323876 1196 -195 97216 -57648 -37553 -314779
347327 347328404 366 -1318 96118 -58122 -37235 -314718
347331 347332168 -415 -1049 97656 -58343 -36037 -314737
347335 347335952 439 -756 98022 -58008 -35845 -314715
347338 347339704 1196 -512 97363 -57453 -36563 -314746
347342 347343484 854 -439 96386 -56840 -36874 -314778
347346 347347248 341 -1513 97216 -57633 -36425 -314728
347350 347350996 634 -927 99316 -57597 -36432 -314858
347354 347354772 708 -146 97582 -56655 -36634 -315073
347358 347358536 1660 -683 96337 -56309 -37941 -314963
347362 347363064 292 -756 96801 -56194 -37430 -314927
347366 347366828 585 -1416 97265 -56771 -37293 -314891
347370 347370604 634 -1049 98022 -56779 -37215 -314970
347373 347374392 927 -976 98193 -56755 -37652 -315062
347377 347378168 537 -659 96997 -56476 -37544 -315090
347381 347381936 317 -195 96777 -55660 -37144 -315063
347384 347385692 830 -756 98535 -55441 -37322 -315015
347388 347389468 463 -1293 99072 -55785 -37222 -314983
347393 347393244 1196 -952 97582 -55712 -37969 -315153
347397 347397780 146 -585 96313 -55267 -37530 -315200
347401 347401544 488 -708 96777 -54997 -37355 -315191
347404 347405304 805 -561 97778 -54530 -37585 -315219
347408 347409080 512 -1000 98046 -54640 -37370 -315226
347412 347412864 -244 -561 96997 -54262 -36305 -315153
347416 347416624 -488 -439 96215 -53719 -34941 -315135
347419 347420388 610 -122 97607 -52891 -34884 -315045
347423 347424160 1342 -219 97680 -52079 -35768 -315040
347427 347427940 219 -1171 96948 -52401 -35337 -314991
347430 347431724 97 -683 97558 -52254 -34634 -315052
347436 347436228 341 -781 96899 -52105 -34289 -315122
347439 347439988 1123 -952 97973 -52310 -34992 -315098
347443 347443784 537 -561 97363 -51753 -34945 -315154
347447 347447536 -24 -830 96484 -51718 -34147 -315163
347450 347451300 341 -1489 97070 -52557 -33841 -315219
347454 347455060 1440 -1123 97607 -52700 -34959 -315244
347458 347458848 1269 -195 97290 -51918 -35672 -315336
347461 347462624 708 -732 97094 -51776 -35653 -315325
347465 347466396 146 -952 98242 -51912 -35132 -315289
347470 347470924 268 -732 97802 -51842 -34884 -315271
347473 347474680 927 -1269 97875 -52215 -35240 -315309
347478 347478468 1318 -341 96997 -51570 -36263 -315450
347482 347482240 -439 341 96874 -50199 -34970 -315404
347485 347485988 366 -805 97949 -50181 -34744 -315423
347489 347489752 366 -1025 97875 -50433 -34435 -315341
347493 347493516 756 -634 97924 -50114 -34666 -315278
347496 347497276 634 -830 97338 -50103 -34770 -315291
347500 347501056 -48 -659 96923 -49953 -34019 -315204
347504 347504832 97 -805 96948 -49984 -33421 -315150
347523 347523360 878 -1147 97192 -49863 -33802 -315298
347526 347527148 927 -1098 98120 -50126 -34194 -315238
347530 347530944 976 -146 97265 -49441 -34682 -315245
347534 347534716 1000 -732 97534 -49305 -35094 -315209
347538 347538492 708 -1049 97802 -49604 -35188 -315182
347541 347542276 463 -756 97509 -49390 -35032 -315262
347545 347546032 756 -1318 97363 -49937 -35242 -315244
347549 347549808 903 -976 97167 -50055 -35668 -315203
347552 347553588 512 -439 97021 -49599 -35467 -315295
347560 347561060 195 -805 96923 -49563 -34970 -315382
347564 347564840 1074 -854 97338 -49471 -35544 -315487
347568 347568628 585 -854 97167 -49549 -35450 -315524
347572 347572396 585 -219 97558 -48822 -35445 -315492
347575 347576164 170 -830 96997 -48726 -34875 -315536
347579 347579940 390 -683 97656 -48546 -34643 -315545
347583 347583700 1025 -854 98315 -48492 -35120 -315569
347586 347587476 634 -805 97631 -48463 -35142 -315655
347590 347591252 585 -708 97949 -48342 -35109 -315686
347595 347596700 756 -903 97582 -48573 -35254 -315580
347599 347600464 1049 -1196 97753 -49059 -35735 -315599
347603 347604256 170 -805 97827 -49221 -35391 -315753
347607 347608016 439 -415 96948 -48740 -35187 -315772
347611 347611772 512 -1318 97143 -49346 -35019 -315742
347615 347615548 1171 -1220 96435 -49851 -35727 -315797
347619 347619340 415 -634 96997 -49713 -35523 -315734
347622 347623096 439 -1000 97387 -49964 -35350 -315801
347626 347626872 561 -781 97167 -49829 -35348 -315770
347630 347630644 463 -537 97021 -49491 -35182 -315734
347634 347635156 952 -146 96752 -48748 -35585 -315673
347638 347638924 146 -1000 97827 -48924 -34975 -315679
347641 347642704 781 -976 97631 -49094 -35177 -315710
347645 347646484 756 -708 97412 -48881 -35289 -315649
347650 347650240 122 -659 97485 -48845 -34729 -315604
347653 347654008 976 -537 96630 -48525 -35093 -315727
347657 347657764 805 -756 97094 -48312 -35429 -315783
347661 347661532 1098 -1293 97607 -48938 -36026 -315692
347664 347665328 1538 -463 98266 -48537 -37012 -315723
347669 347669848 610 -415 97582 -47990 -37015 -315681
347673 347673608 1000 -830 96850 -48094 -37394 -315690
347676 347677404 219 -854 97387 -48020 -36961 -315874
347680 347681176 1123 -903 97363 -48137 -37411 -315728
347684 347684964 805 -463 97656 -47702 -37597 -315733
347687 347688728 805 -732 97656 -47430 -37771 -315757
347692 347692500 268 -634 96972 -47300 -37367 -315808
347696 347696260 732 -708 97363 -47198 -37407 -315717
347699 347700020 512 -805 97119 -47260 -37417 -315730
347703 347703788 878 -878 97241 -47437 -37661 -315740
347707 347708308 585 -634 96777 -47367 -37706 -315697
347711 347712068 1269 -1147 96801 -47774 -38535 -315637
347715 347715876 268 -415 96630 -47330 -38170 -315642
347718 347719632 610 -1147 97460 -47704 -38116 -315777
347722 347723420 341 -1171 97705 -48066 -37721 -315778
347726 347727200 73 -1220 97460 -48555 -37109 -315838
347730 347730976 659 -585 96606 -48311 -37124 -315852
347734 347734744 488 -1025 97387 -48502 -36847 -315937
347738 347738512 0 -1342 97753 -49143 -36023 -316029
347742 347742888 268 -1147 97802 -49738 -35680 -315931
347746 347746664 732 -1440 96874 -50413 -35907 -315908
347750 347750444 659 -1391 97534 -51099 -36109 -315900
347753 347754224 830 -1293 97167 -51670 -36320 -315937
347757 347758008 1123 -1074 97119 -51941 -36845 -316020
347761 347761808 1074 -585 96728 -51607 -37414 -315998
347764 347765592 756 -537 98437 -51249 -37496 -316133
347768 347769352 219 -463 97021 -50747 -37057 -316115
347772 347773112 1269 -561 98217 -50343 -37808 -316115
347777 347777648 878 -1025 97705 -50560 -38194 -316043
347781 347781436 610 -244 96874 -49816 -38132 -316007
347784 347785192 903 -1074 97534 -50079 -38383 -316058
347788 347788976 341 -1318 97094 -50629 -38010 -316022
347792 347792748 317 -341 98461 -50006 -37576 -316096
347796 347796500 903 -976 97167 -50132 -37798 -316156
347799 347800272 756 -1074 97558 -50441 -37856 -316114
347803 347804048 708 -537 96874 -49983 -37988 -316105
347807 347807812 878 -1074 96874 -50363 -38176 -316119
347810 347811604 390 -390 97070 -49878 -37864 -316224
347830 347831192 903 -952 97460 -50278 -38213 -316868
347834 347834964 708 -732 97900 -50120 -38185 -316924
347838 347838732 854 -1074 97387 -50544 -38514 -317025
347841 347842504 1098 -976 97290 -50793 -38879 -317056
347845 347846292 732 -610 96899 -50399 -38874 -317136
347849 347850048 1000 -219 97680 -49650 -39296 -317215
347852 347853832 659 -537 97485 -49370 -39260 -317275
347856 347857584 781 -805 96044 -49435 -39391 -317159
347860 347861360 952 -1000 97070 -49612 -39665 -317209
347868 347868864 756 -1293 98022 -49936 -39656 -317103
347872 347872644 854 -97 97900 -49035 -39803 -317031
347876 347876412 366 -122 96704 -48201 -39443 -316962
347879 347880176 1123 -390 97290 -47794 -40033 -316945
347883 347883956 512 -683 97119 -47700 -39884 -316881
347887 347887708 512 -1000 97387 -47912 -39701 -316891
347890 347891492 512 -1220 97900 -48264 -39420 -316763
347894 347895268 415 -1147 97534 -48666 -39099 -316686
347898 347899048 830 -903 97216 -48853 -39230 -316682
347901 347902824 366 -805 97070 -48852 -38859 -316599
347908 347908456 708 -561 96484 -48394 -39031 -316577
347912 347912212 195 -463 96655 -48058 -38498 -316651
347915 347915968 1098 -610 96679 -47804 -39086 -316615
347919 347919756 585 -683 97290 -47803 -38943 -316487
347923 347923512 1049 -1049 98144 -48038 -39338 -316520
347926 347927316 756 -317 97460 -47332 -39606 -316527
347930 347931076 317 -463 98510 -46967 -39257 -316486
347934 347934828 634 -854 98193 -46972 -39125 -316692
347937 347938604 1586 -1049 97192 -47380 -40192 -316797
347942 347943160 146 -781 97290 -47420 -39605 -316865
347945 347946924 415 -708 97680 -47244 -39259 -316980
347950 347950672 341 -659 98266 -47034 -38905 -316889
347954 347954424 439 -585 96386 -46805 -38741 -316954
347957 347958168 683 -1123 98046 -47231 -38768 -316924
347961 347961964 878 -903 97729 -47263 -39110 -316857
347965 347965740 463 -1220 97460 -47736 -38749 -316908
347968 347969496 878 -488 96752 -47421 -39072 -316939
347972 347973260 1049 -1000 97241 -47852 -39494 -316916
347977 347977812 317 -1074 97582 -48056 -39080 -316990
347980 347981588 585 -976 97705 -48368 -39018 -316899
347984 347985356 537 -976 97070 -48545 -38816 -316876
347988 347989128 170 -1196 97021 -49031 -38292 -316914
347992 347992908 561 -927 97387 -49269 -38309 -316841
347996 347996672 927 -268 97753 -48717 -38561 -316897
348000 348000424 195 -1464 97631 -49467 -38039 -316769
348003 348004204 708 -1293 97265 -49890 -38163 -316678
348007 348007984 805 -1074 98632 -50154 -38261 -316685
348011 348011776 610 -952 97558 -50275 -38215 -316731
348015 348016300 830 -1000 98388 -50617 -38368 -316786
348019 348020084 1000 -1098 97143 -50848 -38824 -316713
348023 348023884 1196 -903 96752 -50884 -39498 -316764
348026 348027672 878 -878 96533 -50864 -39772 -316917
348030 348031456 854 -390 98095 -50406 -40049 -317070
348035 348035220 903 -659 97875 -50247 -40375 -317098
348038 348038988 415 -561 97436 -50012 -40005 -316983
348042 348042756 439 -708 97241 -49933 -39644 -316970
348046 348046508 219 -1000 96899 -50101 -38992 -317066
348050 348051040 341 -781 97412 -49990 -38663 -317083
348054 348054800 805 -903 97900 -50040 -38857 -317165
348057 348058572 439 -830 96728 -50024 -38729 -317056
348061 348062340 537 -1074 98339 -50277 -38523 -316996
348065 348066120 195 -903 97143 -50339 -37999 -317015
348069 348069896 927 -952 97753 -50386 -38360 -317066
348072 348073668 683 -976 98217 -50595 -38536 -316914
348077 348077436 1171 -1025 97705 -50832 -38993 -316878
348081 348081236 0 -1025 96948 -50974 -38265 -317002
348084 348084868 732 -585 97363 -50754 -38335 -316844
348089 348089372 585 -634 97656 -50408 -38306 -316716
348092 348093136 488 -976 98095 -50470 -38005 -316717
348096 348096892 1367 -634 97143 -50229 -38842 -316782
348100 348100664 73 -854 97778 -50308 -38203 -316778
348103 348104436 146 -1098 97998 -50606 -37613 -316626
348107 348108228 292 -537 98266 -50248 -37258 -316722
348111 348111984 463 -1000 98095 -50427 -37021 -316769
348114 348115764 732 -903 97851 -50471 -37149 -316915
348119 348119536 195 -1171 97900 -50933 -36650 -317002
348143 348144084 830 -1000 97436 -50999 -37357 -317146
348147 348147880 708 -830 97998 -51040 -37462 -316982
348150 348151652 683 -781 97363 -50983 -37527 -317001
348154 348155432 219 -634 98168 -50766 -37143 -316947
348158 348159196 1025 -610 96191 -50479 -37618 -316917
348162 348162980 732 -1171 96801 -50918 -37778 -316753
348166 348166756 830 -585 97119 -50539 -37927 -316723
348170 348170524 341 -854 96557 -50418 -37562 -316724
348173 348174280 463 -634 97875 -50161 -37393 -316590
348181 348181760 708 -1147 98144 -50479 -37508 -316698
348184 348185532 878 -756 96606 -50345 -37761 -316851
348188 348189308 805 -1171 97045 -50855 -38050 -316925
348192 348193092 805 -805 97338 -50815 -38257 -316949
348196 348196876 390 -976 97656 -50932 -37962 -316981
348199 348200640 439 -1098 96826 -51320 -37614 -317066
348204 348204412 341 -341 97412 -50621 -37279 -317025
348208 348208160 292 -927 97167 -50659 -36796 -316994
348211 348211924 561 -781 97802 -50593 -36691 -317013
348215 348215692 390 -219 97705 -49876 -36444 -317050
348221 348221920 732 -1123 97705 -50265 -36503 -317280
348225 348225704 805 -927 97436 -50392 -36745 -317303
348228 348229484 1025 -927 96948 -50626 -37171 -317206
348232 348233276 585 -585 97607 -50268 -37202 -317268
348236 348237044 708 -659 97582 -49970 -37189 -317204
348239 348240800 952 -781 97607 -49956 -37553 -317230
348243 348244572 659 -1171 97290 -50309 -37485 -317322
348248 348248360 341 -659 96752 -50026 -37160 -317396
348251 348252116 97 -952 97241 -50191 -36577 -317183
348256 348256632 463 -439 97680 -49741 -36392 -317147
348260 348260388 732 -756 97265 -49684 -36435 -317111
348263 348264148 781 -830 97827 -49682 -36571 -317197
348267 348267920 292 -781 96533 -49608 -36171 -317156
348271 348271684 463 -1025 97460 -49832 -36022 -317221
348274 348275464 292 -585 97021 -49601 -35645 -317228
348278 348279224 537 -415 98022 -49239 -35602 -317269
348282 348282972 195 -415 97412 -48748 -35135 -317064
348285 348286740 708 -1293 98608 -49369 -35334 -317324
348290 348290528 634 -537 97192 -49020 -35342 -317412
348294 348295028 610 -683 97412 -48899 -35523 -317443
348298 348298796 488 -488 97241 -48570 -35345 -317393
348302 348302536 708 -439 97705 -48102 -35435 -317485
348305 348306280 634 -878 97998 -48187 -35376 -317413
348309 348310056 683 -976 96752 -48340 -35528 -317444
348313 348313828 219 -1318 97460 -48951 -35132 -317609
348316 348317600 268 -708 97631 -48853 -34795 -317518
348320 348321356 1098 -292 97631 -48203 -35565 -317501
348324 348325132 561 -512 97094 -47819 -35519 -317437
348328 348329636 1049 -683 98120 -47645 -36012 -317319
348333 348333412 805 -1123 98071 -48028 -36248 -317242
348337 348337204 488 -537 96459 -47730 -36065 -317274
348340 348340956 659 -952 96630 -47942 -36176 -317177
348344 348344732 317 -585 97412 -47669 -35837 -317105
348348 348348480 878 -830 97778 -47542 -36193 -317146
348351 348352256 1000 -463 97436 -47180 -36518 -317190
348355 348356036 708 -952 97949 -47414 -36662 -317158
348359 348359804 561 -1098 96728 -47760 -36543 -317063
348362 348363588 659 -439 97119 -47385 -36754 -317118
348367 348368096 708 -1098 97143 -47854 -36821 -317149
348370 348371868 952 -805 97338 -48042 -37299 -317036
348375 348375644 512 -219 96142 -47464 -37161 -316957
348379 348379400 0 -903 96997 -47597 -36357 -317008
348382 348383004 952 -390 97607 -47213 -36684 -317027
348386 348386768 488 -976 96508 -47555 -36555 -316991
348390 348390528 488 -561 97167 -47250 -36402 -317065
348393 348394276 756 -634 98168 -46904 -36530 -317072
348397 348398040 512 -585 96459 -46591 -36447 -317136
348401 348402532 952 -756 97436 -46653 -36864 -317106
348405 348406300 439 -805 97582 -46698 -36658 -317138
348409 348410072 73 -732 97436 -46635 -36022 -317161
348412 348413824 903 -708 97802 -46669 -36266 -317162
348417 348417596 585 -952 97680 -46866 -36351 -317126
348421 348421368 463 -732 96337 -46685 -36227 -317149
348424 348425112 170 -610 97900 -46509 -35699 -317187
348428 348428876 195 -903 97680 -46670 -35223 -317230
348432 348432652 512 -219 97119 -46038 -35076 -317130
348435 348436396 1098 -878 97338 -46273 -35474 -317167
348448 348449136 415 -756 97436 -45974 -35279 -317096
348452 348452892 585 -976 96728 -46288 -35220 -317124
348455 348456660 341 -952 97851 -46435 -34822 -316972
348460 348460416 927 -1342 98217 -47146 -35210 -316840
348464 348464196 1318 -1293 97314 -47678 -35935 -316845
348467 348467992 830 -634 97875 -47530 -36250 -316821
348471 348471768 952 -634 97607 -47321 -36650 -316946
348475 348475536 878 -463 97973 -46873 -37073 -316964
348478 348479292 585 -268 97851 -46151 -37014 -316965
348486 348486772 1000 -952 97729 -46347 -37526 -316795
348489 348490572 488 -830 97924 -46393 -37260 -316741
348493 348494336 805 -1049 97338 -46770 -37434 -316650
348497 348498120 683 -976 96533 -47017 -37498 -316591
348500 348501884 537 -1245 97021 -47392 -37349 -316470
348505 348505656 268 -903 98437 -47510 -36822 -316642
348509 348509412 781 -512 97290 -47250 -37012 -316660
348512 348513168 439 -610 96655 -47180 -36760 -316588
348516 348516924 1293 -1123 97070 -47665 -37465 -316534
348522 348523380 1025 -659 97387 -47302 -37936 -316434
348526 348527156 659 -976 98266 -47353 -38020 -316490
348530 348530928 927 -170 97680 -46558 -38296 -316444
348533 348534684 1171 -1025 97167 -46880 -38915 -316457
348537 348538488 878 -585 97167 -46611 -39104 -316409
348541 348542256 903 -1098 97265 -46957 -39419 -316355
348545 348546040 976 -805 97558 -46974 -39861 -316342
348549 348549828 219 -537 97460 -46704 -39181 -316348
348553 348553584 561 -1123 96533 -47046 -39035 -316317
348557 348557372 -146 -683 97094 -46868 -38007 -316313
348561 348561896 659 -366 97631 -46572 -37975 -316240
348565 348565648 854 -1220 97290 -47048 -38153 -316264
348568 348569436 781 -1074 96972 -47390 -38160 -316289
348572 348573228 659 -805 96606 -47459 -38182 -316210
348576 348577012 415 -537 98095 -47206 -37941 -316243
348579 348580756 537 -732 97802 -47140 -37766 -316207
348583 348584508 512 -1123 97558 -47548 -37759 -316208
348588 348588288 1074 -708 96997 -47426 -38127 -316263
348591 348592056 1416 -756 97143 -47407 -39055 -316215
348596 348596588 976 -1440 97460 -48101 -39562 -316246
348600 348600364 634 -1123 97509 -48437 -39362 -316160
348603 348604144 512 -292 97045 -47810 -39099 -316203
348607 348607904 146 -781 96557 -47764 -38422 -316217
348611 348611676 805 -561 97338 -47579 -38617 -316259
348614 348615448 341 -756 97802 -47510 -38260 -316205
348618 348619204 -97 -1171 97924 -47915 -37446 -316114
348622 348622988 390 -1123 96972 -48249 -37219 -316146
348625 348626764 1025 -1171 96874 -48749 -37690 -316104
348630 348630568 634 -878 96508 -48790 -37589 -316105
348634 348635088 1049 -122 97045 -47930 -37978 -316167
348638 348638868 292 -1196 98193 -48333 -37706 -316259
348642 348642648 878 -1098 97875 -48668 -37912 -316301
348646 348646432 927 -1391 97924 -49441 -38259 -316269
348649 348650208 1000 -805 97265 -49474 -38706 -316325
348653 348653992 1025 -854 97290 -49546 -39114 -316390
348657 348657780 -122 -854 96435 -49563 -38212 -316495
348660 348661568 1416 -439 96240 -49043 -39106 -316429
348664 348665328 1196 -1220 97582 -49443 -39807 -316420
348668 348669872 366 -903 97241 -49491 -39319 -316536
348673 348673624 1220 -488 96752 -49242 -39981 -316610
348677 348677396 146 -854 97582 -49285 -39351 -316583
348680 348681168 366 -878 96874 -49484 -39090 -316565
348684 348684932 732 -805 96508 -49542 -39133 -316554
348688 348688700 830 73 97021 -48507 -39310 -316545
348691 348692452 610 -830 96923 -48676 -39270 -316614
348695 348696224 708 -903 97436 -48689 -39230 -316566
348699 348699992 585 -512 97924 -48379 -39116 -316544
348703 348704488 903 -1098 96826 -48737 -39417 -316654
348707 348708276 708 -708 96801 -48580 -39460 -316586
348711 348712032 610 -610 96777 -48337 -39382 -316591
348715 348715808 463 -1000 97387 -48557 -39151 -316478
348719 348719588 1098 -1318 97998 -49196 -39583 -316377
348723 348723388 48 -390 96752 -48824 -38901 -316373
348726 348727144 708 -732 97045 -48822 -38938 -316386
348730 348730908 341 -415 96728 -48316 -38548 -316396
348734 348734656 488 -708 97021 -48205 -38360 -316460
348737 348738408 952 -878 97436 -48252 -38734 -316388
348761 348762028 781 -927 97485 -48747 -38536 -317344
348765 348765808 390 -1074 97363 -48955 -38239 -317443
348769 348769576 634 -683 97753 -48845 -38270 -317393
348772 348773332 561 -1245 97534 -49148 -38096 -317284
348776 348777104 1147 -756 96679 -49075 -38678 -317388
348780 348780888 219 -1269 98120 -49569 -38047 -317379
348784 348784668 73 -781 97387 -49556 -37352 -317316
348787 348788432 659 -561 97094 -49247 -37374 -317304
348791 348792192 512 -561 97631 -48882 -37270 -317296
348798 348799668 1245 -1049 96289 -49002 -38036 -317236
348803 348803468 122 -610 97143 -48788 -37399 -317246
348807 348807236 585 -585 96972 -48515 -37314 -317187
348810 348811000 756 -903 97705 -48462 -37321 -317248
348814 348814760 805 -756 96679 -48396 -37500 -317180
348818 348818532 927 -488 97363 -47999 -37934 -317295
348821 348822292 1196 -537 97363 -47655 -38580 -317345
348825 348826072 439 -878 97998 -47704 -38329 -317377
348829 348829840 659 -1147 97436 -48182 -38290 -317424
348832 348833628 537 -683 97436 -48113 -38069 -317565
348838 348839076 683 -708 97119 -48041 -38028 -317535
348841 348842836 1000 -634 97412 -47866 -38351 -317315
348846 348846616 488 -830 97290 -48032 -38135 -317334
348850 348850372 463 -1074 97290 -48315 -37992 -317288
348853 348854144 683 -683 96850 -48034 -38038 -317332
348857 348857904 708 -927 97241 -48156 -38108 -317320
348861 348861680 512 -390 97387 -47631 -37992 -317289
348864 348865420 585 -952 96020 -47733 -38084 -317259
348868 348869196 561 -512 97509 -47496 -38081 -317369
348872 348873688 512 -683 97216 -47360 -37884 -317394
348876 348877444 341 -878 98266 -47493 -37540 -317444
348880 348881200 805 -732 97778 -47470 -37717 -317426
348883 348884960 512 -1367 97558 -48263 -37464 -317496
348888 348888732 341 -830 97070 -48142 -37259 -317374
348892 348892488 708 -561 97607 -47884 -37347 -317283
348895 348896244 781 -1123 98120 -48204 -37488 -317247
348899 348900036 585 -805 97045 -48282 -37468 -317138
348903 348903808 561 -1147 97167 -48626 -37428 -317093
348907 348908328 830 -415 96582 -48220 -37607 -317185
348911 348912092 1367 -781 97143 -48272 -38528 -317121
348915 348915876 1220 -1123 96752 -48661 -39201 -317154
348918 348919676 952 -903 96752 -48675 -39512 -317234
348922 348923448 1391 -732 96826 -48576 -40275 -317125
348926 348927220 878 -292 97607 -48016 -40630 -317278
348930 348930972 561 -708 97802 -47839 -40562 -317279
348934 348934736 1025 -878 96704 -47949 -41004 -317206
348938 348938532 1123 -415 97436 -47493 -41458 -317202
348941 348942304 830 -756 96484 -47498 -41629 -317374
348946 348946836 1293 -732 97143 -47515 -42374 -317393
348950 348950612 1098 -512 97192 -47117 -42855 -317403
348953 348954392 1098 -830 96630 -47154 -43369 -317373
348957 348958200 561 -463 97290 -46714 -43251 -317460
348961 348961952 585 -1562 97021 -47707 -43138 -317529
348964 348965736 415 -244 97167 -46989 -42540 -317384
348968 348969492 488 -659 97607 -46950 -42289 -317476
348973 348973252 317 -1074 97021 -47254 -41838 -317504
348976 348977028 830 170 96899 -46073 -41980 -317462
348981 348981548 -24 -903 97656 -46351 -41151 -317414
348984 348985308 366 -537 97534 -46155 -40702 -317405
348988 348989044 -219 -415 97265 -45836 -39632 -317412
348992 348992816 781 -878 97363 -45879 -39729 -317367
348995 348996584 1196 -1000 97949 -46125 -40408 -317330
348999 349000384 561 -854 97143 -46337 -40331 -317197
349003 349004152 756 -805 97265 -46361 -40436 -317188
349007 349007936 1074 -1049 97534 -46646 -40936 -317262
349010 349011736 390 -976 96679 -46798 -40412 -317271
349015 349015500 561 -1342 97045 -47381 -40255 -317161
349019 349020020 927 -1440 97070 -48172 -40530 -317168
349023 349023800 366 -854 96997 -48213 -40107 -317272
349027 349027556 952 -488 97753 -47850 -40432 -317291
349030 349031312 1049 -903 97192 -47953 -40888 -317274
349034 349035100 1000 -683 97387 -47723 -41221 -317366
349038 349038872 585 -903 96533 -47810 -41144 -317449
349041 349042628 561 -781 97338 -47859 -41014 -317492
349045 349046396 341 -488 97534 -47543 -40628 -317438
349049 349050136 463 -1074 97094 -47848 -40348 -317379
349063 349063968 561 -24 96752 -47420 -39925 -318228
349067 349067716 1049 -561 97338 -47111 -40405 -318234
349071 349071488 830 -585 96948 -46850 -40611 -318143
349074 349075256 610 -805 96728 -46881 -40489 -318125
349078 349079024 219 -805 97265 -46952 -39949 -318043
349082 349082796 415 -1123 97290 -47341 -39632 -317975
349085 349086576 390 -1000 97924 -47496 -39377 -317884
349089 349090360 -48 -854 96533 -47562 -38534 -317982
349093 349094144 585 -732 97387 -47411 -38487 -317955
349101 349101612 268 -927 96606 -47675 -37880 -317655
349105 349105372 317 -830 97973 -47689 -37442 -317669
349108 349109132 854 -854 96655 -47786 -37727 -317731
349112 349112912 561 -1293 96557 -48427 -37516 -317774
349116 349116688 610 -683 96118 -48356 -37577 -317752
349119 349120448 292 -488 97851 -47938 -37165 -317722
349123 349124200 830 -659 97290 -47889 -37348 -317723
349127 349127968 878 -659 97143 -47737 -37640 -317696
349130 349131736 708 -512 96044 -47491 -37807 -317672
349134 349135492 683 -1123 97680 -47927 -37682 -317630
349140 349141140 122 -1611 97021 -49035 -36906 -317695
349144 349144920 170 -415 97290 -48754 -36348 -317702
349148 349148688 488 -708 96923 -48667 -36169 -317707
349152 349152436 561 -317 97143 -48038 -36034 -317676
349155 349156192 73 -878 97656 -48284 -35462 -317676
349159 349159960 805 -1635 98022 -49142 -35661 -317628
349163 349163752 463 -1269 97729 -49586 -35499 -317587
349166 349167516 219 -1074 96313 -49892 -35155 -317655
349170 349171296 854 -585 96655 -49728 -35438 -317644
349174 349175804 366 -537 97290 -49434 -35037 -317675
349178 349179556 292 -781 97827 -49272 -34748 -317663
349182 349183328 97 -854 97192 -49212 -34171 -317780
349187 349187096 781 -439 97558 -48885 -34309 -317854
349190 349190848 903 -439 96582 -48370 -34895 -317696
349194 349194612 1000 -561 96801 -48109 -35357 -317623
349198 349198384 634 -561 98095 -47818 -35497 -317555
349201 349202144 390 -854 96704 -47858 -35294 -317507
349205 349205912 488 -1074 97802 -48165 -35225 -317512
349209 349209688 610 -903 97143 -48336 -35257 -317613
349213 349214208 634 -756 97851 -48400 -35274 -317657
349217 349217972 463 -903 96166 -48479 -35051 -317666
349220 349221736 512 -585 97241 -48273 -34891 -317826
349224 349225492 317 -805 97509 -48412 -34444 -317741
349229 349229252 805 -561 97436 -48128 -34749 -317764
349232 349233012 610 -1806 97631 -49353 -34768 -317820
349236 349236804 781 -537 96752 -48848 -34964 -317784
349240 349240568 1269 -1269 96508 -49420 -35905 -317748
349243 349244364 268 -830 97241 -49411 -35380 -317791
349248 349248876 1049 -1318 97778 -50042 -36031 -317865
349252 349252672 97 -830 97607 -50057 -35400 -317829
349255 349256444 317 -1147 97753 -50415 -35151 -317860
349259 349260224 317 -561 96997 -50084 -34816 -317824
349263 349263980 512 -292 97460 -49384 -34693 -317829
349266 349267732 585 -927 97021 -49427 -34762 -317609
349271 349271508 146 -952 97192 -49535 -34161 -317651
349275 349275276 390 -1025 96923 -49843 -33910 -317573
349278 349279056 756 -1196 96533 -50411 -34151 -317367
349282 349282844 683 -292 97192 -49741 -34223 -317445
349286 349287344 659 -317 97119 -49128 -34277 -317287
349290 349291100 610 -1220 97802 -49584 -34369 -317227
349294 349294888 927 -659 97436 -49400 -34757 -317273
349297 349298652 1293 -1831 96997 -50678 -35647 -317268
349301 349302452 708 -732 97265 -50523 -35962 -317201
349305 349306220 366 -1367 97509 -51224 -35702 -317234
349309 349309984 781 -1074 96850 -51580 -35945 -317338
349313 349313768 -24 -561 96948 -51255 -35164 -317363
349317 349317528 463 -830 96801 -51344 -34936 -317382
349321 349322032 976 -634 97167 -51163 -35236 -317438
349325 349325796 610 -1123 97582 -51456 -35336 -317379
349329 349329592 244 -1293 97387 -51986 -34954 -317443
349332 349333372 976 -1293 96289 -52440 -35492 -317548
349336 349337156 1049 -732 97460 -52404 -36097 -317402
349340 349340936 1171 -561 97460 -51986 -36741 -317384
349343 349344712 708 -732 96948 -51831 -36762 -317537
349347 349348472 561 -488 96826 -51428 -36701 -317471
349351 349352232 756 -634 97265 -51175 -36901 -317504
349365 349366000 463 -634 97607 -50859 -36897 -317804
349369 349369752 1049 -878 98437 -50893 -37424 -317736
349373 349373540 366 -512 98046 -50556 -37195 -317663
349376 349377292 317 -952 96874 -50637 -36788 -317755
349380 349381064 244 -1220 97290 -51158 -36324 -317843
349384 349384836 878 -1342 97924 -51851 -36641 -317802
349387 349388612 903 -585 96997 -51549 -36811 -317815
349391 349392380 1318 -952 97290 -51686 -37612 -317916
349395 349396160 -24 -1562 96606 -52423 -36726 -317917
349399 349399940 122 -830 97924 -52324 -36095 -317954
349407 349407440 634 -1147 98095 -52464 -36057 -317923
349410 349411220 830 -366 97363 -51836 -36357 -317973
349414 349414980 1293 -805 97045 -51776 -37023 -317919
349418 349418772 415 -805 98144 -51539 -36680 -318015
349421 349422528 1489 -952 98095 -51723 -37796 -317961
349425 349426308 366 -317 97827 -50961 -37448 -317852
349429 349430044 292 -659 97094 -50734 -37119 -317839
349432 349433800 170 -708 96850 -50403 -36689 -317839
349436 349437564 708 -683 96606 -50380 -36911 -317749
349443 349443796 1074 -1049 96948 -50796 -37366 -317557
349447 349447592 878 -976 98364 -50959 -37644 -317521
349451 349451372 537 -756 96679 -50919 -37476 -317590
349454 349455144 1342 -634 96118 -50749 -38312 -317683
349458 349458924 708 -1074 98266 -51113 -38347 -317633
349462 349462700 317 -561 97265 -50713 -37992 -317647
349465 349466456 170 -854 97656 -50656 -37388 -317739
349469 349470232 317 -732 97582 -50544 -37024 -317763
349473 349473992 952 -585 96655 -50270 -37378 -317750
349476 349477756 -48 -1171 97143 -50684 -36510 -317854
349481 349482292 463 -415 97607 -50063 -36530 -317824
349485 349486052 732 -1000 97143 -50316 -36618 -317770
349489 349489832 830 -1074 96948 -50700 -36882 -317655
349493 349493620 463 -561 97900 -50305 -36622 -317669
349497 349497376 1025 -366 97143 -49880 -37016 -317702
349500 349501140 390 -805 97802 -49738 -36772 -317531
349504 349504904 1245 -976 96874 -49931 -37489 -317587
349508 349508688 830 -561 96826 -49616 -37652 -317670
349511 349512452 122 -830 98388 -49497 -37050 -317628
349516 349516980 830 -1000 97241 -49742 -37194 -317580
349519 349520768 756 -1440 96459 -50406 -37346 -317599
349523 349524556 1196 -976 97705 -50680 -37998 -317615
349528 349528348 244 -537 97485 -50384 -37581 -317574
349531 349532100 756 -1245 97485 -50776 -37566 -317666
349535 349535872 292 -976 97314 -50954 -37151 -317612
349539 349539640 634 -878 97851 -50979 -37238 -317613
349542 349543416 927 -903 98095 -51047 -37494 -317599
349546 349547204 366 -781 96972 -50879 -37318 -317435
349551 349551712 708 -1074 97265 -51147 -37420 -317399
349554 349555496 195 -756 97167 -51186 -36893 -317363
349558 349559264 634 -805 97656 -51091 -36821 -317378
349562 349563048 927 -488 97680 -50683 -37135 -317332
349565 349566808 1098 -708 97265 -50513 -37780 -317303
349570 349570596 122 -683 97387 -50225 -37200 -317322
349574 349574360 244 -1147 97705 -50577 -36754 -317235
349577 349578140 463 -659 97021 -50358 -36581 -317297
349581 349581896 585 -439 96411 -49916 -36615 -317298
349585 349585660 708 -976 97558 -50004 -36703 -317234
349589 349590180 341 -1049 97265 -50205 -36412 -317403
349593 349593952 732 -878 98095 -50171 -36515 -317390
349597 349597724 463 -488 97534 -49760 -36269 -317395
349600 349601468 952 -732 97534 -49651 -36725 -317365
349604 349605240 1000 -952 96972 -49771 -37216 -317338
349608 349609024 585 -219 97167 -48959 -37141 -317369
349612 349612788 585 -952 97460 -49208 -37162 -317321
349616 349616556 1318 -683 98046 -49024 -37890 -317276
349620 349620340 976 -219 97705 -48348 -38221 -317350
349624 349624860 122 -195 96728 -47689 -37717 -317366
349628 349628628 1245 -903 97485 -47735 -38446 -317426
349631 349632408 1123 -1196 97924 -48128 -38910 -317268
349635 349636204 585 -1293 96533 -48799 -38729 -317183
349639 349639976 708 -781 97656 -48876 -38868 -317087
349642 349643740 415 -903 97875 -48910 -38621 -317094
349646 349647508 805 -708 97534 -48831 -38876 -316961
349650 349651276 634 -1074 96874 -49131 -38856 -316984
349655 349655068 683 -439 97998 -48668 -38911 -316925
349658 349658824 1000 -1196 97045 -49186 -39372 -316907
349671 349672088 561 -708 97460 -49002 -39215 -316632
349675 349675844 -48 -1098 97631 -49353 -38452 -316637
349679 349679632 512 -488 96582 -48861 -38316 -316665
349682 349683380 488 -1147 97802 -49314 -38016 -316800
349686 349687152 488 -1123 97778 -49654 -37893 -316874
349690 349690932 708 -903 97314 -49811 -37971 -316856
349693 349694704 805 -537 97119 -49353 -38203 -317009
349698 349698464 708 -292 97436 -48685 -38207 -317047
349702 349702216 561 -830 97436 -48662 -38065 -316992
349709 349709712 463 -1123 97070 -49143 -37835 -316940
349713 349713484 268 -1635 96923 -50037 -37313 -316904
349716 349717272 659 146 96997 -48889 -37312 -316831
349720 349721040 1000 -830 97680 -48891 -37832 -316859
349724 349724836 976 -1000 97412 -49204 -38199 -316773
349727 349728620 732 -146 97143 -48442 -38254 -316792
349731 349732384 903 -1074 95874 -48908 -38470 -316677
349735 349736168 659 -830 96874 -48913 -38541 -316659
349739 349739944 415 -756 97412 -48902 -38381 -316828
349746 349746364 634 -1318 97875 -49632 -38361 -316719
349749 349750144 878 -683 96191 -49479 -38590 -316738
349753 349753920 805 -390 97167 -49018 -38861 -316751
349757 349757684 878 -805 97314 -48983 -39067 -316783
349760 349761460 390 -1342 97851 -49643 -38728 -316808
349764 349765228 1269 -1342 96948 -50353 -39486 -316772
349768 349769024 146 -1074 97534 -50568 -38790 -316759
349771 349772796 268 -708 97924 -50360 -38308 -316819
349775 349776560 1000 -952 97363 -50439 -38705 -316844
349779 349780348 1000 -781 97021 -50301 -39080 -316863
349784 349784888 170 -1342 96630 -50739 -38432 -316766
349788 349788660 610 -634 97265 -50451 -38416 -316831
349792 349792432 97 -1513 97265 -51307 -37774 -316859
349795 349796200 854 -634 97290 -51025 -37932 -316872
349799 349799980 854 -805 96826 -50941 -38313 -316885
349803 349803760 512 -1000 97265 -51099 -38076 -316890
349806 349807536 317 -805 96850 -51080 -37735 -316787
349810 349811300 195 -1000 96923 -51309 -37154 -316671
349814 349815080 366 -1123 96655 -51508 -36825 -316640
349818 349819592 146 -1000 98022 -51695 -36301 -316351
349822 349823380 -97 -1342 96606 -52429 -35330 -316370
349827 349827164 317 -585 97851 -52090 -34935 -316444
349830 349830920 415 -1196 97412 -52254 -34679 -316444
349834 349834696 903 -1196 97558 -52642 -35089 -316587
349838 349838480 781 -903 97460 -52688 -35366 -316642
349841 349842256 463 -341 97436 -52086 -35159 -316533
349845 349846004 0 -1123 97949 -52324 -34400 -316579
349849 349849640 1000 -683 97412 -52096 -34829 -316543
349852 349853424 805 -756 97387 -52048 -35071 -316648
349857 349857940 708 -659 97167 -51984 -35201 -316783
349860 349861700 1025 -1000 97436 -52099 -35640 -316863
349864 349865500 854 -1220 97534 -52355 -35904 -316961
349869 349869280 537 -805 97412 -52181 -35766 -316980
349872 349873040 585 -952 96069 -52334 -35818 -317145
349876 349876808 317 -1147 97949 -52608 -35536 -317201
349880 349880588 659 -1000 96606 -52821 -35564 -317165
349883 349884364 292 -952 97656 -52973 -35236 -317117
349887 349888140 781 -1123 97509 -53313 -35386 -317117
349892 349892680 292 -878 97436 -53306 -35026 -317051
349895 349896468 537 -732 96533 -53027 -34989 -316985
349899 349900232 1123 -927 97241 -53065 -35548 -316848
349903 349904016 756 -927 97900 -53172 -35756 -316931
349906 349907784 390 -976 96704 -53223 -35575 -316848
349911 349911552 634 -708 98168 -52883 -35588 -316926
349915 349915312 512 -1098 97241 -53157 -35550 -316954
349918 349919092 659 -488 96484 -52753 -35547 -317028
349922 349922852 903 -976 97778 -52946 -35993 -317016
349926 349927372 634 -854 97363 -52948 -36053 -317212
349930 349931152 488 -1074 97753 -53103 -35949 -317152
349934 349934920 1318 -219 97241 -52319 -36732 -317125
349937 349938688 512 -903 97290 -52427 -36576 -317016
349941 349942456 756 -708 97582 -52248 -36838 -316980
349945 349946224 415 -512 96850 -51838 -36716 -317086
349949 349949976 0 -1806 97241 -53051 -36116 -317111
349953 349953604 366 -659 97753 -52788 -35748 -317227
349957 349957360 732 -756 97485 -52547 -35909 -317278
349960 349961112 488 -1220 96801 -52961 -35832 -317273
349973 349974268 927 -537 97460 -52655 -36254 -317255
349977 349978036 830 -805 97021 -52533 -36476 -317379
349981 349981804 415 -366 96850 -51926 -36235 -317348
349984 349985560 561 -976 96704 -52058 -36274 -317300
349988 349989336 659 -781 96874 -51897 -36304 -317332
349992 349993104 805 -1440 97021 -52628 -36627 -317302
349996 349996888 1000 -1245 97241 -53146 -37011 -317273
350000 350000704 927 -634 97436 -52921 -37389 -317176
350004 350004468 585 -561 96679 -52561 -37306 -317199
350011 350011944 1342 -1074 97436 -52740 -38073 -317042
350015 350015740 1074 -1464 97167 -53482 -38598 -316900
350018 350019532 561 -561 96874 -52976 -38464 -316913
350022 350023284 756 -1147 96606 -53166 -38667 -316944
350026 350027072 659 -1220 97582 -53609 -38719 -317041
350030 350030860 805 -1245 97241 -54023 -38873 -316987
350033 350034648 1196 -683 97900 -53750 -39379 -317012
350038 350038428 927 -1245 97875 -54189 -39663 -317080
350042 350042208 317 -952 97534 -54234 -39303 -317144
350045 350045980 805 -1342 97436 -54802 -39419 -317194
350051 350051436 634 -1220 97436 -55196 -39336 -317256
350054 350055220 952 -537 97338 -54786 -39685 -317238
350058 350058984 390 -708 97656 -54522 -39374 -317124
350062 350062736 1025 -1293 98144 -54849 -39732 -317148
350065 350066532 146 -1196 97387 -55108 -39148 -317118
350069 350070320 659 -732 97656 -54998 -39220 -317222
350073 350074084 1000 -1318 96997 -55448 -39579 -317182
350076 350077876 927 -732 96997 -55341 -39872 -317045
350081 350081644 805 -537 97802 -54817 -39962 -316997
350086 350086156 1098 -1245 96997 -55295 -40511 -316967
350089 350089964 24 -927 96899 -55378 -39667 -316895
350093 350093724 854 -1464 97851 -55951 -39827 -316858
350097 350097504 610 -854 97973 -55842 -39733 -316845
350100 350101296 488 -976 97241 -55931 -39528 -316706
350104 350105056 659 -756 97412 -55780 -39457 -316734
350108 350108832 1098 -1123 97778 -55996 -39980 -316661
350111 350112632 537 -903 97949 -55898 -39907 -316796
350115 350116392 610 -1318 96826 -56444 -39804 -316821
350119 350120916 488 -781 97998 -56261 -39545 -316715
350124 350124680 512 -878 96874 -56296 -39274 -316813
350128 350128440 366 -952 97582 -56312 -38907 -316718
350131 350132196 1367 -1464 98046 -56876 -39861 -316804
350135 350135984 341 -781 98022 -56713 -39663 -316866
350139 350139752 659 -1147 97436 -56961 -39625 -316825
350143 350143540 805 -537 96630 -56478 -39844 -316725
350146 350147308 805 -268 97045 -55709 -39894 -316829
350150 350151072 488 -463 97119 -55166 -39665 -316843
350154 350154820 561 -708 97167 -54890 -39540 -316766
350158 350159336 756 -610 97802 -54515 -39621 -316828
350162 350163100 -170 -1025 98168 -54641 -38551 -316860
350166 350166884 781 -805 97216 -54417 -38577 -317136
350170 350170664 1220 -708 96874 -54174 -39276 -317033
350174 350174440 463 -659 97338 -53926 -39070 -316965
350177 350178192 195 -1147 97070 -54090 -38588 -316923
350181 350181976 1147 -756 97485 -53870 -39174 -316801
350185 350185764 732 -1000 97070 -53926 -39261 -316779
350188 350189548 1342 -903 97363 -53894 -40053 -316712
350193 350194096 805 -1293 97949 -54332 -40132 -316738
350197 350197892 1098 -1123 97705 -54599 -40579 -316578
350200 350201692 830 -830 97827 -54517 -40659 -316566
350204 350205484 756 -1147 97045 -54762 -40773 -316453
350209 350209264 341 -1025 97656 -54812 -40262 -316476
350212 350213028 927 -830 96777 -54725 -40408 -316434
350216 350216808 756 -1000 98364 -54798 -40574 -316508
350220 350220596 805 -317 98022 -54169 -40653 -316564
350223 350224344 537 -976 97143 -54203 -40393 -316522
350227 350228116 0 -659 97827 -53833 -39588 -316657
350231 350232476 634 -952 97387 -53842 -39384 -316737
350235 350236244 366 -366 97021 -53170 -39026 -316804
350239 350239992 756 -878 97485 -53096 -39065 -316755
350242 350243756 -97 -1440 97460 -53777 -38148 -316597
350246 350247528 512 -732 96972 -53533 -37874 -316658
350251 350251280 732 -610 98315 -53235 -38105 -316628
350254 350255036 610 -634 97607 -52935 -37972 -316696
350258 350258800 683 -1562 97973 -53640 -37949 -316605
350262 350262584 585 -659 97509 -53437 -37832 -316643
350276 350276776 1245 -1440 97412 -53835 -38471 -316684
350279 350280564 1196 -1391 96215 -54286 -39021 -316661
350283 350284356 48 -756 96606 -54046 -38338 -316558
350287 350288128 683 -1806 97290 -55112 -38356 -316563
350290 350291900 830 -561 97656 -54641 -38529 -316625
350295 350295664 97 -1245 97705 -54926 -37840 -316485
350299 350299432 854 -1220 97216 -55214 -38043 -316495
350302 350303212 561 -439 96997 -54756 -38014 -316575
350306 350306980 488 -1098 97143 -55108 -37707 -316606
350313 350314472 610 -1049 97485 -55295 -37466 -316810
350317 350318252 708 -1049 97729 -55476 -37657 -316951
350321 350322032 244 -683 97802 -55213 -37170 -317011
350325 350325788 878 -1318 97851 -55668 -37475 -317044
350328 350329576 1098 -512 97314 -55202 -38052 -317142
350332 350333352 439 -805 97265 -55075 -37820 -317005
350337 350337120 1171 -1074 96874 -55155 -38434 -316983
350340 350340928 0 -1049 97338 -55487 -37746 -316709
350344 350344556 1367 -1123 97802 -55623 -38527 -316641
350348 350348348 610 -659 97021 -55223 -38439 -316618
350353 350353984 268 -488 96948 -54644 -38073 -316629
350357 350357748 952 -439 96289 -54076 -38456 -316611
350360 350361508 1416 -561 97875 -53719 -39437 -316648
350364 350365288 1025 -683 97290 -53440 -39751 -316533
350368 350369068 537 -805 97387 -53401 -39631 -316446
350371 350372828 1391 -756 97924 -53298 -40439 -316398
350375 350376604 366 -390 96899 -52703 -40037 -316491
350380 350380344 732 -781 97778 -52611 -40258 -316427
350383 350384104 366 -512 97290 -52218 -39914 -316515
350388 350388608 463 -463 98022 -51712 -39553 -316442
350392 350392356 781 -732 96582 -51628 -39695 -316589
350395 350396120 878 -1000 97045 -51761 -39894 -316712
350399 350399904 488 -683 97607 -51566 -39802 -316795
350403 350403660 927 -708 98364 -51432 -40030 -316809
350406 350407436 1416 -1123 98046 -51754 -40965 -316767
350410 350411244 390 -756 96923 -51678 -40663 -316827
350414 350415000 415 -830 97363 -51681 -40278 -316905
350417 350418760 659 -1049 97070 -51960 -40385 -316973
350422 350422540 439 -878 97680 -52037 -40125 -316998
350426 350427052 122 -756 97143 -51998 -39500 -317139
350430 350430816 537 -830 97412 -51901 -39332 -317079
350434 350434580 463 -1220 97314 -52387 -39022 -317025
350437 350438348 903 -732 97680 -52242 -39250 -316958
350441 350442116 756 -927 97290 -52309 -39396 -316800
350445 350445880 634 -805 97412 -52252 -39356 -316796
350448 350449648 439 -732 97485 -52132 -39070 -316788
350452 350453408 634 -903 97973 -52070 -39016 -316788
350456 350457188 366 -708 98388 -52012 -38687 -316816
350460 350461676 463 -805 97924 -51864 -38422 -316642
350465 350465436 1245 -390 97045 -51276 -39076 -316638
350469 350469208 756 -610 97924 -50948 -39097 -316652
350472 350472980 756 -512 97045 -50399 -39200 -316646
350476 350476744 854 -903 96386 -50398 -39421 -316674
350480 350480520 1342 -1196 97241 -50882 -40364 -316643
350483 350484316 1074 -1367 97509 -51407 -40810 -316790
350487 350488116 292 -683 96679 -51155 -40380 -316675
350491 350491876 317 -1000 96826 -51344 -39914 -316758
350495 350496396 317 -585 97094 -51019 -39434 -316820
350499 350500152 610 -903 97680 -50970 -39265 -316912
350502 350503908 805 -1147 97338 -51217 -39341 -316958
350507 350507700 97 -1098 97534 -51426 -38717 -316966
350511 350511488 1074 -952 96850 -51583 -39144 -317036
350515 350515272 756 -512 96899 -51209 -39200 -316995
350518 350519036 732 -976 96899 -51389 -39356 -317044
350522 350522804 1049 -732 96874 -51296 -39854 -316981
350526 350526580 195 -659 96801 -51123 -39294 -316922
350529 350530352 317 -854 97705 -51254 -38919 -316953
350534 350534864 439 -830 97875 -51119 -38706 -316997
350537 350538624 488 -1171 97460 -51452 -38587 -317052
350541 350542404 415 -756 97485 -51285 -38401 -317004
350545 350546168 341 -756 96508 -51195 -38104 -317078
350548 350549920 781 -1660 96704 -52118 -38301 -317079
350553 350553712 903 -732 96997 -52062 -38527 -317214
350557 350557476 -48 -708 97656 -51934 -37666 -317045
350560 350561240 537 -903 97338 -51822 -37571 -317076
350564 350565000 439 -561 97265 -51533 -37305 -317180
350578 350579160 512 -952 96752 -51383 -37467 -317441
350582 350582916 390 -1123 96655 -51675 -37214 -317491
350585 350586692 463 -585 96874 -51408 -36925 -317578
350589 350590440 1098 -1269 97167 -51878 -37563 -317792
350594 350594248 122 -634 97216 -51563 -37012 -317811
350597 350598008 683 -976 97460 -51712 -37192 -317781
350601 350601784 927 -708 97436 -51476 -37542 -317867
350605 350605556 1245 -463 96264 -51009 -38176 -317918
350608 350609316 634 -1000 97290 -51211 -38241 -318035
350612 350613108 732 -756 97363 -51151 -38401 -318060
350619 350620584 732 -805 97949 -51137 -38233 -318007
350623 350624352 659 -781 97851 -50983 -38207 -317947
350627 350628128 805 -781 97973 -50806 -38347 -317916
350630 350631904 805 -1367 97094 -51483 -38588 -317849
350635 350635696 610 -659 97241 -51240 -38539 -317858
350639 350639472 195 -1000 97290 -51409 -37969 -317890
350643 350643252 732 -610 96704 -51024 -38187 -317744
350646 350647012 610 -1074 97851 -51156 -38159 -317824
350650 350650792 1025 -927 97338 -51217 -38627 -317903
350656 350657048 952 -537 96899 -50882 -38991 -317759
350660 350660816 708 -1586 96899 -51734 -39078 -317722
350663 350664592 732 -1293 97021 -52175 -39021 -317693
350667 350668368 317 -659 96777 -51962 -38595 -317724
350671 350672128 512 -952 97412 -52115 -38469 -317647
350674 350675884 683 -878 97363 -52282 -38388 -317655
350679 350679656 683 -1123 98339 -52510 -38455 -317674
350683 350683444 683 -585 97314 -52250 -38480 -317729
350686 350687204 1074 -439 97265 -51738 -38942 -317684
350691 350691728 610 -463 96874 -51427 -38870 -317783
350695 350695484 439 -659 97143 -51150 -38626 -317820
350698 350699244 976 -708 96655 -50843 -38955 -317875
350702 350703008 341 -561 97119 -50458 -38612 -317798
350706 350706756 97 -512 98071 -50144 -37867 -317734
350709 350710512 952 -463 97582 -49657 -38284 -317790
350713 350714284 219 -878 98095 -49750 -37701 -317827
350717 350718052 219 -781 96704 -49647 -37198 -317926
350721 350721824 634 -708 98071 -49555 -37163 -317835
350725 350725592 268 -659 97485 -49340 -36679 -317881
350729 350730100 781 -708 96313 -49203 -36872 -317857
350733 350733872 73 -73 97045 -48271 -36212 -317803
350737 350737628 805 -976 98266 -48608 -36487 -317794
350740 350741396 1538 -1196 97314 -49022 -37523 -317807
350744 350745196 341 -903 96777 -49095 -37079 -317784
350748 350748956 927 -976 97998 -49260 -37420 -317807
350751 350752724 292 -1049 97900 -49571 -37077 -317924
350755 350756500 292 -292 98022 -48990 -36699 -317888
350759 350760260 512 -390 97998 -48558 -36710 -317801
350764 350764756 390 -830 97753 -48490 -36329 -317808
350768 350768520 341 -903 96801 -48514 -36000 -317763
350772 350772276 1049 -512 97338 -48207 -36379 -317686
350775 350776044 317 -1049 97167 -48435 -36052 -317601
350779 350779816 1000 -903 98193 -48589 -36497 -317643
350783 350783608 756 -659 97387 -48502 -36610 -317730
350786 350787360 415 -659 96533 -48250 -36397 -317651
350790 350791120 24 -927 97851 -48292 -35696 -317698
350794 350794880 732 -1196 97534 -48724 -35813 -317771
350797 350798656 -24 -903 97631 -48907 -35137 -317900
350802 350803168 659 -244 98583 -48203 -35125 -317852
350806 350806924 1000 -634 96533 -48032 -35487 -317830
350810 350810704 1074 -512 97485 -47705 -35989 -317776
350814 350814484 317 -732 97582 -47671 -35649 -317726
350817 350818232 170 -1098 97705 -48014 -35079 -317763
350821 350822016 708 -585 97607 -47701 -35116 -317618
350825 350825772 537 -1000 96874 -47973 -35002 -317623
350828 350829548 341 -952 97265 -48029 -34725 -317599
350832 350833312 927 -1196 97680 -48557 -35134 -317490
350837 350837848 292 -1000 97387 -48951 -34803 -317387
350840 350841628 122 -1074 97509 -49116 -34151 -317351
350844 350845412 1367 -854 97436 -49082 -35078 -317438
350849 350849200 537 -659 97827 -48842 -35021 -317453
350852 350852960 781 -610 97778 -48666 -35054 -317520
350856 350856732 952 -708 97607 -48520 -35539 -317521
350860 350860504 732 -903 96972 -48712 -35750 -317540
350863 350864268 219 -1123 96777 -48968 -35352 -317535
350867 350868052 1025 -512 96704 -48663 -35832 -317566
350871 350871828 561 -244 96630 -48039 -35734 -317630
350884 350885412 732 -976 97290 -48059 -35425 -318089
350888 350889168 927 -952 97265 -48210 -35812 -318163
